subject,task,retrieval_type,block,trial,stim,resp,rt,error,delta_s,delta_r,has_lag
813125,color,passive,1,1,108.0,120.63218743532632,3.693582800000513,12.63218743532633,,,False
813125,color,passive,1,4,30.0,35.151929857354034,4.376925900000117,5.151929857354048,78.0,90.63218743532633,True
813125,color,active,1,8,358.0,347.5331113368225,3.478274999999428,-10.466888663177485,32.0,37.15192985735405,True
813125,color,passive,1,13,172.0,178.4465968758318,3.5431299000011336,6.446596875831801,-174.0,175.53311133682251,True
813125,color,active,1,14,338.0,312.75425743410494,3.458900100000392,-25.245742565895057,-166.0,-159.5534031241682,True
813125,color,active,1,15,258.0,268.4252549342468,3.3098066999991715,10.425254934246823,80.0,54.75425743410494,True
813125,color,passive,1,16,224.0,230.34708160029936,2.6282914000003075,6.3470816002993615,34.0,44.42525493424682,True
813125,color,passive,1,17,334.0,292.9606306379023,6.626390299999855,-41.039369362097716,-110.0,-103.65291839970064,True
813125,color,active,1,18,246.0,233.130102354156,4.226873100000375,-12.869897645843992,88.0,46.960630637902284,True
813125,color,active,1,22,286.0,269.6034957448669,5.893207500001154,-16.396504255133095,-40.0,-52.86989764584399,True
813125,color,passive,1,24,146.0,133.65387171588696,6.30939749999925,-12.346128284113036,140.0,123.6034957448669,True
813125,color,active,1,26,58.0,60.06848815949221,4.8932598999999755,2.0684881594922047,88.0,75.65387171588696,True
813125,color,passive,1,27,338.0,357.73204546409414,4.077008500000375,19.732045464094142,80.0,82.06848815949223,True
813125,color,active,1,30,180.0,191.8482662384144,4.75956049999877,11.848266238414396,158.0,177.73204546409414,True
813125,color,passive,1,31,120.0,120.46554491945987,2.694272599999749,0.4655449194598873,60.0,71.8482662384144,True
813125,color,passive,1,32,354.0,355.9004865965981,2.6776253000007273,1.900486596598114,126.0,126.46554491945989,True
813125,color,active,1,35,310.0,300.5070861697579,3.1438477000010607,-9.492913830242117,44.0,45.900486596598114,True
813125,color,passive,1,37,192.0,197.535761538446,2.527120400000058,5.535761538445996,118.0,108.50708616975788,True
813125,color,active,1,38,74.0,53.09144124024412,4.678372299998955,-20.908558759755863,118.0,123.53576153844597,True
813125,color,active,1,39,340.0,308.8989128838456,3.375834099999338,-31.101087116154417,94.0,73.09144124024414,True
813125,color,active,1,43,190.0,195.83526479289745,3.827110000000175,5.835264792897448,150.0,118.89891288384558,True
813125,color,passive,1,44,270.0,274.6627393362546,7.226367200000823,4.662739336254617,-80.0,-74.16473520710255,True
813125,color,active,1,48,266.0,278.47981792685005,4.493744200000947,12.479817926850046,4.0,8.662739336254617,True
813125,color,active,1,49,120.0,120.22544972495342,3.4933400000008987,0.22544972495342108,146.0,158.47981792685005,True
813125,color,passive,1,51,60.0,57.36060601070024,4.5427161999996315,-2.6393939892997764,60.0,60.22544972495342,True
813125,color,passive,1,52,0.0,4.6255058706050685,2.5443316000000777,4.625505870605082,60.0,57.360606010700224,True
813125,color,active,1,54,248.0,246.3942933192309,4.0624265000005835,-1.6057066807690887,112.0,116.62550587060508,True
813125,color,active,1,55,228.0,232.8257451664089,4.060214899998755,4.825745166408893,20.0,18.39429331923091,True
813125,color,passive,1,56,354.0,318.5423611921937,5.359986299999946,-35.45763880780629,-126.0,-121.1742548335911,True
813125,color,active,1,58,110.0,126.5630958685941,2.828303100000994,16.563095868594104,-116.0,-151.4576388078063,True
813125,color,active,2,2,294.0,294.94791785390146,3.1759397999995826,0.9479178539014583,,,False
813125,color,passive,2,3,332.0,298.393019421383,6.142744099999504,-33.606980578617026,-38.0,-37.05208214609854,True
813125,color,passive,2,6,276.0,269.80105712063937,3.977336699999796,-6.198942879360629,56.0,22.393019421382974,True
813125,color,active,2,8,290.0,290.309853932135,3.564613099999633,0.3098539321350131,-14.0,-20.19894287936063,True
813125,color,active,2,10,0.0,0.9612483860247474,3.3100413000009894,0.9612483860247494,-70.0,-69.69014606786499,True
813125,color,active,2,11,60.0,50.86960044301471,3.6940997000001516,-9.130399556985282,-60.0,-59.03875161397525,True
813125,color,active,2,12,324.0,303.4709642746457,3.3761704999996027,-20.529035725354277,96.0,86.86960044301469,True
813125,color,passive,2,15,316.0,303.02386755579664,2.292514400000073,-12.976132444203358,8.0,-12.529035725354277,True
813125,color,passive,2,18,252.0,283.9432309205537,4.209430499998916,31.943230920553674,64.0,51.02386755579664,True
813125,color,active,2,19,8.0,307.71404087351976,6.0914634999990085,-60.285959126480236,-116.0,-84.05676907944633,True
813125,color,active,2,22,60.0,57.000209671885294,3.426130200001353,-2.999790328114699,-52.0,-112.28595912648024,True
813125,color,passive,2,27,78.0,80.02583631474613,5.5101736999986315,2.0258363147461296,-18.0,-20.9997903281147,True
813125,color,active,2,28,162.0,177.1975484801332,3.494184799999857,15.197548480133207,-84.0,-81.97416368525387,True
813125,color,active,2,30,208.0,204.94791785390143,3.6281284999986383,-3.05208214609857,-46.0,-30.802451519866793,True
813125,color,active,2,34,164.0,274.5247684728342,6.742257600000585,110.52476847283418,44.0,40.94791785390143,True
813125,color,passive,2,36,16.0,27.712578971649453,3.027491099999679,11.712578971649464,148.0,-101.47523152716582,True
813125,color,passive,2,37,10.0,29.41024141699911,5.742475299999342,19.4102414169991,6.0,17.712578971649464,True
813125,color,passive,2,38,162.0,178.57299813248534,2.626066799999535,16.57299813248534,-152.0,-132.5897585830009,True
813125,color,passive,2,40,144.0,154.01703395811245,3.4940277000005153,10.01703395811245,18.0,34.57299813248534,True
813125,color,active,2,41,60.0,49.41987113885471,4.293938900000285,-10.580128861145283,84.0,94.01703395811245,True
813125,color,active,2,44,104.0,127.98349825527708,2.4937069000006886,23.983498255277084,-44.0,-54.58012886114528,True
813125,color,passive,2,46,46.0,47.011904987853136,2.8263492999994924,1.0119049878531428,58.0,81.98349825527708,True
813125,color,active,2,48,210.0,250.51387042753424,3.675292800000534,40.51387042753424,-164.0,-162.98809501214686,True
813125,color,active,2,49,42.0,39.996080047759655,3.894868799999813,-2.003919952240352,168.0,-151.48612957246576,True
813125,color,active,2,50,208.0,220.34838554335937,3.7598225999990973,12.34838554335937,-166.0,-168.00391995224035,True
813125,color,passive,2,51,122.0,122.65241186424166,2.377201499999501,0.6524118642416568,86.0,98.34838554335937,True
813125,color,active,2,53,196.0,206.10669471907755,2.8750318000002153,10.106694719077552,-74.0,-73.34758813575834,True
813125,color,passive,2,55,194.0,195.1540680503126,3.1265509000004386,1.1540680503125884,2.0,12.106694719077552,True
813125,color,active,2,56,18.0,31.030847578122835,3.4265467999994144,13.030847578122831,176.0,177.15406805031262,True
813125,color,passive,2,58,246.0,239.85257886599047,3.0614509999993516,-6.147421134009534,132.0,145.0308475781228,True
813125,color,passive,2,59,200.0,229.86745917638737,4.743402500000002,29.86745917638737,46.0,39.852578865990466,True
813125,color,passive,2,60,202.0,206.9958383940866,3.4609571999990294,4.995838394086604,-2.0,27.86745917638737,True
813125,color,passive,3,1,178.0,207.1168393777156,3.043664999999237,29.116839377715593,,,False
813125,color,passive,3,2,120.0,133.1523897340054,3.577078899999833,13.152389734005396,58.0,87.11683937771556,True
813125,color,active,3,6,188.0,191.19097946946775,2.976816500000723,3.1909794694677487,-68.0,-54.847610265994604,True
813125,color,active,3,7,66.0,58.83683900788187,3.1601905999998507,-7.163160992118122,122.0,125.19097946946772,True
813125,color,passive,3,9,322.0,308.2144308210706,4.910295699999324,-13.785569178929393,104.0,96.83683900788185,True
813125,color,passive,3,12,288.0,272.13546344237665,3.5442425000001094,-15.864536557623353,34.0,20.214430821070607,True
813125,color,passive,3,13,54.0,31.70613916970168,3.061140499999965,-22.293860830298314,-126.0,-141.86453655762335,True
813125,color,active,3,14,312.0,302.855721950433,2.8930077000002257,-9.144278049566992,102.0,79.70613916970166,True
813125,color,active,3,16,242.0,237.4354415025276,2.825867500000186,-4.5645584974724045,70.0,60.85572195043301,True
813125,color,passive,3,18,286.0,353.1117417230053,4.927459000000226,67.11174172300531,-44.0,-48.564558497472404,True
813125,color,passive,3,23,192.0,311.4677054161091,5.560261599999649,119.46770541610908,94.0,161.1117417230053,True
813125,color,active,3,24,22.0,34.99202019855866,2.743311399999584,12.992020198558663,170.0,-70.53229458389092,True
813125,color,active,3,25,288.0,278.1029092952044,2.728447999999844,-9.897090704795573,94.0,106.99202019855863,True
813125,color,passive,3,26,242.0,237.0022948987837,3.0441556999994646,-4.997705101216297,46.0,36.10290929520443,True
813125,color,passive,3,27,142.0,171.4391104288354,3.193476300000839,29.43911042883539,100.0,95.0022948987837,True
813125,color,passive,3,32,252.0,258.651275534945,4.142524399998592,6.651275534945,-110.0,-80.56088957116461,True
813125,color,passive,3,33,282.0,284.420773127511,4.742303200000606,2.4207731275109836,-30.0,-23.348724465055,True
813125,color,active,3,34,126.0,121.90507557331996,3.225375100000292,-4.094924426680052,156.0,158.42077312751098,True
813125,color,passive,3,36,92.0,123.7429233961456,6.142224200000328,31.742923396145613,34.0,29.905075573319948,True
813125,color,passive,3,37,150.0,178.56790381583536,4.092960799999219,28.567903815835365,-58.0,-26.257076603854387,True
813125,color,active,3,39,182.0,178.07157768672803,4.5103979999998955,-3.928422313271966,-32.0,-3.432096184164635,True
813125,color,passive,3,40,232.0,228.17983011986425,2.892072399999961,-3.820169880135751,-50.0,-53.928422313271966,True
813125,color,active,3,41,184.0,195.7027328739183,4.20962949999921,11.702732873918308,48.0,44.17983011986425,True
813125,color,passive,3,43,210.0,215.0872485532761,3.1268646000003173,5.087248553276112,-26.0,-14.297267126081692,True
813125,color,passive,3,44,230.0,237.0209087554326,3.1767423000001145,7.0209087554326,-20.0,-14.912751446723888,True
813125,color,active,3,45,34.0,33.90627698844215,3.242268100000956,-0.09372301155784157,-164.0,-156.97909124456737,True
813125,color,passive,3,47,164.0,195.30613897408983,4.811230099999875,31.306138974089833,-130.0,-130.09372301155784,True
813125,color,passive,3,48,158.0,3.4848624439094613,3.9266387000006944,-154.51513755609054,6.0,37.30613897408983,True
813125,color,passive,3,51,104.0,133.75763566932574,3.459974799999827,29.757635669325737,54.0,-100.51513755609054,True
813125,color,passive,3,53,308.0,286.2201936956028,3.427026000000751,-21.779806304397198,156.0,-174.24236433067426,True
813125,color,passive,3,54,64.0,43.12650698640008,2.4607968000000255,-20.873493013599926,-116.0,-137.7798063043972,True
813125,color,passive,3,55,12.0,32.42755499577247,3.327362600000697,20.427554995772482,52.0,31.126506986400074,True
813125,color,passive,3,56,342.0,4.893527055115314,5.192377600000555,22.893527055115328,30.0,50.42755499577248,True
813125,color,passive,3,58,232.0,237.25275951554735,2.7268189000005805,5.252759515547353,110.0,132.89352705511533,True
813125,color,active,3,59,196.0,193.79611168233825,6.293715400000792,-2.2038883176617503,36.0,41.25275951554735,True
813125,color,active,4,1,232.0,236.60345336687652,2.9928328999994847,4.603453366876522,,,False
813125,color,active,4,4,240.0,233.78775628756284,2.4274781000003713,-6.212243712437157,-8.0,-3.396546633123478,True
813125,color,passive,4,5,6.0,24.737927467647754,3.0442419000009977,18.73792746764775,-126.0,-132.21224371243716,True
813125,color,passive,4,10,126.0,127.71971091600628,2.5938009999990754,1.719710916006278,-120.0,-101.26207253235225,True
813125,color,active,4,14,224.0,237.68752137387,3.510158399998545,13.687521373869998,-98.0,-96.28028908399372,True
813125,color,active,4,16,264.0,267.7502512965424,4.376116699999329,3.7502512965423875,-40.0,-26.31247862613,True
813125,color,passive,4,18,132.0,138.57633437499737,2.327524899999844,6.576334374997373,132.0,135.7502512965424,True
813125,color,passive,4,19,10.0,129.96176092666897,5.459889800000838,119.96176092666894,122.0,128.57633437499737,True
813125,color,active,4,22,6.0,25.53743439063632,4.541617000000315,19.53743439063632,4.0,123.96176092666894,True
813125,color,active,4,25,340.0,323.8353732134495,4.5432385000003705,-16.164626786550514,26.0,45.53743439063635,True
813125,color,active,4,26,340.0,324.55163745838183,4.475496199998815,-15.448362541618167,0.0,-16.164626786550514,True
813125,color,active,4,28,144.0,147.1865771578838,4.126091299998734,3.1865771578837894,-164.0,-179.44836254161817,True
813125,color,passive,4,29,96.0,101.8787004833304,2.878048399999898,5.8787004833304195,48.0,51.18657715788379,True
813125,color,active,4,32,232.0,215.36246188706903,4.159695399999691,-16.63753811293097,-136.0,-130.12129951666958,True
813125,color,active,4,33,242.0,237.8317790425301,2.809994299999744,-4.168220957469913,-10.0,-26.63753811293097,True
813125,color,active,4,34,6.0,11.200797787884431,4.845214800000122,5.200797787884426,-124.0,-128.16822095746988,True
813125,color,active,4,35,172.0,179.3657552855739,3.6930578999999852,7.365755285573897,-166.0,-160.79920221211557,True
813125,color,passive,4,39,320.0,307.66562119858327,5.05982719999929,-12.334378801416733,-148.0,-140.6342447144261,True
813125,color,passive,4,40,12.0,289.54854943235506,4.727344299999459,-82.45145056764494,-52.0,-64.33437880141673,True
813125,color,passive,4,41,14.0,334.8797882576857,4.259904799999276,-39.120211742314325,-2.0,-84.45145056764494,True
813125,color,passive,4,43,284.0,283.94572888364723,3.161256100000628,-0.0542711163527656,90.0,50.879788257685675,True
813125,color,active,4,47,40.0,38.00807465333221,3.526975799999491,-1.9919253466677844,-116.0,-116.05427111635277,True
813125,color,active,4,48,238.0,239.4929138302421,2.6953592999993816,1.4929138302420881,162.0,160.0080746533322,True
813125,color,passive,4,49,114.0,119.28743968317542,2.576513599999089,5.287439683175421,124.0,125.49291383024206,True
813125,color,active,4,50,230.0,219.44506307986447,4.194951400000718,-10.554936920135532,-116.0,-110.71256031682458,True
813125,color,passive,4,51,66.0,58.240519915187214,2.8100982999985717,-7.759480084812793,164.0,153.44506307986444,True
813125,color,passive,4,52,336.0,55.94130662590673,5.476978400000007,79.94130662590675,90.0,82.24051991518724,True
813125,color,passive,4,56,132.0,125.78107386189257,2.843549000000621,-6.2189261381074346,-156.0,-76.05869337409327,True
813125,color,passive,4,57,240.0,281.7413684424528,3.1446477999998024,41.741368442452824,-108.0,-114.21892613810743,True
813125,color,passive,4,58,124.0,143.48708078488826,2.312496299999111,19.487080784888263,116.0,157.74136844245282,True
813125,color,active,4,60,40.0,40.51539399045538,3.0278698000001896,0.5153939904553795,84.0,103.48708078488824,True
813125,color,passive,5,4,158.0,154.64393353864298,2.82654729999922,-3.356066461357017,,,False
813125,color,active,5,6,258.0,274.5247684728342,2.2775035000013304,16.524768472834182,-100.0,-103.35606646135702,True
813125,color,active,5,7,40.0,37.77568430595466,3.745669399999315,-2.2243156940453446,-142.0,-125.47523152716582,True
813125,color,active,5,8,256.0,271.8344690323918,3.0947472000002563,15.83446903239178,144.0,141.77568430595466,True
813125,color,passive,5,10,138.0,128.57125225117014,2.9941412000007404,-9.428747748829863,118.0,133.83446903239178,True
813125,color,passive,5,11,356.0,0.5321436413075533,2.3433350000000246,4.532143641307528,142.0,132.5712522511701,True
813125,color,active,5,12,60.0,48.30186567443501,3.5761633000001893,-11.698134325564979,-64.0,-59.467856358692444,True
813125,color,active,5,17,174.0,183.35487873928733,3.2290881000003537,9.35487873928733,-114.0,-125.698134325565,True
813125,color,active,5,19,292.0,295.9112047598542,7.658963399999266,3.911204759854172,-118.0,-108.64512126071267,True
813125,color,passive,5,20,222.0,222.01706181820768,2.994068600000901,0.01706181820767938,70.0,73.91120475985417,True
813125,color,active,5,21,346.0,331.56373522528247,5.243447999999262,-14.436264774717529,-124.0,-123.98293818179232,True
813125,color,passive,5,24,316.0,300.3964901222156,2.52787810000018,-15.603509877784404,30.0,15.563735225282471,True
813125,color,active,5,25,126.0,134.74980167980246,3.726345899998705,8.74980167980246,-170.0,174.3964901222156,True
813125,color,active,5,29,268.0,270.6182757795167,2.459651200000735,2.6182757795166935,-142.0,-133.25019832019754,True
813125,color,active,5,35,188.0,192.33296266268803,2.8114124000007905,4.332962662688033,80.0,82.6182757795167,True
813125,color,passive,5,37,28.0,41.05948449562097,2.610158899999078,13.059484495620978,160.0,164.33296266268803,True
813125,color,passive,5,39,342.0,37.92646232503863,6.660285599999497,55.92646232503864,46.0,59.05948449562095,True
813125,color,active,5,44,276.0,277.5238204386386,3.144610499999544,1.5238204386386087,66.0,121.92646232503864,True
813125,color,active,5,45,286.0,288.2611502270215,3.227275200000804,2.261150227021517,-10.0,-8.476179561361391,True
813125,color,passive,5,53,44.0,37.60392344028734,3.1933066000001418,-6.396076559712668,-118.0,-115.73884977297848,True
813125,color,active,5,54,146.0,164.89596855752805,5.459505899998476,18.89596855752805,-102.0,-108.39607655971267,True
813125,color,active,5,55,94.0,101.1094582063598,4.159697499998856,7.109458206359818,52.0,70.89596855752805,True
813125,color,passive,5,58,338.0,347.7176724186393,5.943523200000982,9.717672418639324,116.0,123.10945820635982,True
813125,color,active,5,60,214.0,207.65387496102943,6.059709299999668,-6.34612503897057,124.0,133.71767241863932,True
813125,color,passive,6,4,236.0,240.44460384775664,2.3601118000001406,4.444603847756639,,,False
813125,color,passive,6,5,248.0,240.25511870305775,3.3778215999991517,-7.744881296942253,-12.0,-7.555396152243361,True
813125,color,passive,6,8,228.0,235.96338964632963,2.543974600000638,7.963389646329631,20.0,12.255118703057747,True
813125,color,active,6,9,120.0,129.2622653299436,3.1283477000001767,9.262265329943602,108.0,115.96338964632963,True
813125,color,passive,6,11,282.0,287.7983552469585,3.511106999999811,5.798355246958522,-162.0,-152.7377346700564,True
813125,color,active,6,12,156.0,158.7297475422397,3.6435161999997945,2.729747542239693,126.0,131.79835524695852,True
813125,color,active,6,15,300.0,281.43849421677936,3.277785100000983,-18.56150578322064,-144.0,-141.2702524577603,True
813125,color,active,6,17,278.0,273.5374194299875,2.911863799999992,-4.462580570012506,22.0,3.438494216779361,True
813125,color,active,6,18,22.0,29.533285206949703,2.826983000000837,7.533285206949699,-104.0,-108.4625805700125,True
813125,color,active,6,21,164.0,182.0309142368531,3.1765817999998944,18.030914236853107,-142.0,-134.4667147930503,True
813125,color,active,6,23,40.0,39.48130588494377,2.5922466000006352,-0.5186941150562348,124.0,142.0309142368531,True
813125,color,active,6,24,116.0,132.45221967984193,2.694733100000576,16.45221967984193,-76.0,-76.51869411505623,True
813125,color,active,6,28,336.0,306.2977762100532,3.162113499998668,-29.7022237899468,140.0,156.45221967984196,True
813125,color,passive,6,32,96.0,102.4227045350453,6.559165900000153,6.422704535045284,-120.0,-149.7022237899468,True
813125,color,active,6,33,192.0,193.32950571747065,3.827174399999876,1.3295057174706528,-96.0,-89.5772954649547,True
813125,color,active,6,34,74.0,192.48546749085716,3.7772156000000905,118.48546749085716,118.0,119.32950571747062,True
813125,color,active,6,35,154.0,178.2837859805136,2.943541299999197,24.283785980513613,-80.0,38.48546749085716,True
813125,color,passive,6,36,328.0,169.4052342876629,7.144325599998865,-158.5947657123371,-174.0,-149.7162140194864,True
813125,color,active,6,40,22.0,31.671908446091614,2.544360500000039,9.671908446091606,-54.0,147.4052342876629,True
813125,color,active,6,42,8.0,14.493867758276153,4.460240699999758,6.493867758276167,14.0,23.671908446091606,True
813125,color,active,6,43,164.0,180.0,2.977158099999997,16.0,-156.0,-149.50613224172383,True
813125,color,active,6,45,264.0,277.4651908561214,2.843095799999901,13.46519085612141,-100.0,-84.0,True
813125,color,passive,6,51,78.0,81.75928817029212,4.210253199999897,3.759288170292109,-174.0,-160.5348091438786,True
813125,color,active,6,55,142.0,111.1247191460725,4.0431579999999485,-30.875280853927507,-64.0,-60.24071182970788,True
813125,color,passive,6,56,224.0,228.94518622903755,2.3938403000006474,4.945186229037546,-82.0,-112.8752808539275,True
813125,color,active,6,57,84.0,226.6444032646951,4.028130300001067,142.6444032646951,140.0,144.94518622903752,True
813125,color,active,6,58,124.0,127.55695600552826,2.8612025000002177,3.5569560055282636,-40.0,102.64440326469509,True
813125,color,active,6,59,64.0,56.25441332520186,3.1267895000000863,-7.745586674798147,60.0,63.556956005528264,True
813125,color,active,7,1,268.0,274.38271434801106,2.8267656000007264,6.3827143480110635,,,False
813125,color,active,7,2,164.0,185.0030377050465,3.110997199999474,21.003037705046495,104.0,110.38271434801106,True
813125,color,active,7,9,268.0,266.11802311227376,2.975766300000032,-1.881976887726239,-104.0,-82.9969622949535,True
813125,color,active,7,12,180.0,175.2704730891144,2.759762800000317,-4.729526910885596,88.0,86.11802311227376,True
813125,color,passive,7,14,146.0,189.5580810818399,4.143958399999974,43.5580810818399,34.0,29.270473089114404,True
813125,color,passive,7,15,280.0,276.5981734550593,2.561199599998872,-3.401826544940718,-134.0,-90.4419189181601,True
813125,color,active,7,22,230.0,235.64566334496035,3.2942069999990053,5.645663344960354,50.0,46.59817345505928,True
813125,color,passive,7,23,222.0,221.68430345162105,4.276937500000713,-0.315696548378952,8.0,13.645663344960354,True
813125,color,active,7,24,26.0,26.479789663356726,4.1619511999997485,0.479789663356712,-164.0,-164.31569654837892,True
813125,color,active,7,25,268.0,264.53090502988806,2.7441775999996025,-3.4690949701119393,118.0,118.47978966335671,True
813125,color,active,7,27,350.0,335.14476286706355,6.1111024000001635,-14.855237132936452,-82.0,-85.46909497011194,True
813125,color,passive,7,29,0.0,0.9612483860247474,2.5603287000012642,0.9612483860247494,-10.0,-24.85523713293651,True
813125,color,passive,7,31,68.0,52.17526110028379,3.5109068999990996,-15.824738899716209,-68.0,-67.03875161397525,True
813125,color,active,7,33,318.0,298.9091836511478,3.0267741000006936,-19.090816348852172,110.0,94.17526110028382,True
813125,color,active,7,34,346.0,320.1021652523582,4.876340400000117,-25.89783474764181,-28.0,-47.09081634885217,True
813125,color,passive,7,35,28.0,309.7282836667775,5.944822800000111,-78.27171633322251,-42.0,-67.89783474764181,True
813125,color,passive,7,36,154.0,18.77131939783213,2.7933046999996805,-135.22868060216786,-126.0,155.7282836667775,True
813125,color,passive,7,37,254.0,268.1589837930755,3.1612918999990143,14.158983793075492,-100.0,124.77131939783214,True
813125,color,passive,7,38,100.0,131.20275211956158,2.343444099999033,31.20275211956158,154.0,168.1589837930755,True
813125,color,passive,7,40,54.0,328.86102756302114,4.312211700000262,-85.13897243697886,46.0,77.20275211956158,True
813125,color,active,7,41,96.0,133.060703228816,2.726898400000209,37.06070322881601,-42.0,-127.13897243697886,True
813125,color,active,7,43,50.0,43.809266108142666,2.5962627999997494,-6.190733891857349,46.0,83.06070322881601,True
813125,color,active,7,45,170.0,179.4345994767312,4.312329900000805,9.434599476731194,-120.0,-126.19073389185733,True
813125,color,active,7,49,126.0,130.10822781952274,2.7776845000007597,4.108227819522739,44.0,53.434599476731194,True
813125,color,passive,7,50,154.0,107.89044355200951,3.577508599999419,-46.109556447990485,-28.0,-23.89177218047726,True
813125,color,passive,7,52,308.0,175.9747104201726,6.177405700000236,-132.0252895798274,-154.0,159.89044355200951,True
813125,color,passive,7,53,140.0,167.71904559490062,2.87631650000003,27.71904559490062,168.0,35.97471042017261,True
813125,color,active,7,54,280.0,279.3036964241784,2.9619284000000334,-0.6963035758216165,-140.0,-112.28095440509938,True
813125,color,active,7,56,268.0,272.3532968661083,3.377106300000378,4.3532968661082805,12.0,11.303696424178383,True
813125,color,active,7,57,80.0,96.67648006040211,6.643082600001435,16.676480060402127,-172.0,-167.64670313389172,True
813125,color,active,7,60,304.0,292.9109372597121,2.6600386000009166,-11.089062740287886,136.0,152.67648006040213,True
813125,color,passive,8,3,342.0,340.4268741695898,4.427131000000372,-1.5731258304102198,,,False
813125,color,passive,8,4,186.0,203.55720168714709,2.7611495000001014,17.557201687147085,156.0,154.42687416958978,True
813125,color,active,8,5,22.0,20.691442634768453,2.6955978000005416,-1.308557365231536,164.0,-178.44279831285291,True
813125,color,passive,8,6,148.0,133.16085917659163,2.677180500000759,-14.839140823408371,-126.0,-127.30855736523155,True
813125,color,passive,8,9,312.0,308.0470425318261,2.278015600000799,-3.9529574681739064,-164.0,-178.83914082340837,True
813125,color,active,8,10,330.0,304.07239784402765,2.959454600000754,-25.92760215597235,-18.0,-21.952957468173906,True
813125,color,passive,8,13,198.0,197.273293921452,2.559611799999402,-0.7267060785480055,132.0,106.07239784402765,True
813125,color,active,8,14,100.0,120.1980019165662,2.642414899999494,20.1980019165662,98.0,97.27329392145202,True
813125,color,passive,8,15,164.0,171.26921502626325,3.177108899999439,7.269215026263254,-64.0,-43.8019980834338,True
813125,color,active,8,16,120.0,144.91275144672386,3.22729469999922,24.91275144672386,44.0,51.269215026263254,True
813125,color,passive,8,17,102.0,136.9134012857519,2.1102635999995982,34.91340128575189,18.0,42.91275144672386,True
813125,color,passive,8,18,210.0,204.0471520522469,2.5271211999988736,-5.952847947753099,-108.0,-73.08659871424811,True
813125,color,passive,8,20,124.0,139.936024110084,3.894609599999967,15.936024110083991,86.0,80.04715205224693,True
813125,color,active,8,21,228.0,222.68627750217576,3.8094336000012845,-5.313722497824244,-104.0,-88.06397588991601,True
813125,color,passive,8,22,248.0,268.1464145771272,6.0763837000013154,20.14641457712719,-20.0,-25.313722497824244,True
813125,color,active,8,25,316.0,292.8548199617767,3.4126290999993216,-23.145180038223316,-68.0,-47.85358542287281,True
813125,color,active,8,28,228.0,233.76906225314764,2.527507599999808,5.769062253147638,88.0,64.85481996177668,True
813125,color,active,8,29,60.0,40.01366622876451,4.793878599999516,-19.98633377123548,168.0,173.76906225314764,True
813125,color,passive,8,33,134.0,133.42344994481627,2.443250199999966,-0.5765500551837306,-74.0,-93.9863337712355,True
813125,color,active,8,34,50.0,45.131111394747215,3.360212199999296,-4.868888605252778,84.0,83.4234499448163,True
813125,color,passive,8,35,350.0,2.3936069672848217,2.6271194000000833,12.393606967284825,60.0,55.13111139474722,True
813125,color,passive,8,36,356.0,0.7563359928257636,2.594028299999991,4.756335992825768,-6.0,6.393606967284825,True
813125,color,active,8,37,238.0,239.2238517676836,2.6760551999996096,1.2238517676836125,118.0,122.75633599282577,True
813125,color,passive,8,38,100.0,129.87683446287187,4.19366170000103,29.87683446287187,138.0,139.22385176768364,True
813125,color,passive,8,39,36.0,34.67159441269613,3.110178000000815,-1.3284055873038767,64.0,93.8768344628719,True
813125,color,passive,8,45,330.0,308.60104337263107,2.5946310000026642,-21.398956627368932,66.0,64.67159441269615,True
813125,color,active,8,47,266.0,268.9231384793974,3.5786083999992115,2.9231384793973803,64.0,42.60104337263107,True
813125,color,passive,8,48,174.0,180.77422016492807,2.6267697000002954,6.774220164928067,92.0,94.92313847939738,True
813125,color,passive,8,51,54.0,44.86888860525279,3.1943910000009055,-9.131111394747222,120.0,126.77422016492807,True
813125,color,active,8,52,350.0,3.0127875041833403,2.3280952000022808,13.012787504183336,64.0,54.86888860525278,True
813125,color,active,8,54,266.0,263.38653951768526,4.176403999998911,-2.6134604823147356,84.0,97.01278750418334,True
813125,color,passive,8,55,260.0,270.0,2.56051110000044,10.0,6.0,3.3865395176852644,True
813125,color,active,8,57,244.0,236.06000699476567,4.244565299999522,-7.939993005234328,16.0,26.0,True
813125,color,passive,8,59,24.0,24.7610560608774,2.6613871000008658,0.7610560608773937,-140.0,-147.93999300523433,True
813125,color,passive,8,60,14.0,25.769327624338715,2.6441570999995747,11.7693276243387,10.0,10.761056060877394,True
813125,orientation,passive,1,2,36.28254861622543,48.1652063888104,2.9010490999989997,11.882657772584963,,,False
813125,orientation,active,1,3,158.02071189565658,148.61680894364096,7.24363540000013,-9.403902952015613,58.26183672056885,70.14449449315381,True
813125,orientation,active,1,5,47.779045827661164,63.434948822921996,6.489792300000772,15.655902995260831,-69.75833393200458,-79.16223688402022,True
813125,orientation,active,1,7,9.56372440953098,41.82016988013575,4.445275899999615,32.256445470604774,38.2153214181302,53.87122441339102,True
813125,orientation,active,1,9,9.253710124453766,53.13010235415598,4.593081400000244,43.87639222970222,0.31001428507721585,32.56645975568199,True
813125,orientation,active,1,10,141.3991063612912,152.0628571734614,4.593338799999401,10.663750812170207,47.85460376316257,-88.26900400713521,True
813125,orientation,passive,1,11,178.58974026934968,22.619864948040423,7.1840756999990845,24.030124678690754,-37.19063390805849,-26.52688309588828,True
813125,orientation,active,1,12,126.647237277556,156.5014343240479,6.1079588000011995,29.85419704649189,51.942502991793674,75.97262767048443,True
813125,orientation,passive,1,19,98.92555367199104,133.11181199325907,4.119147499999599,34.18625832126803,27.721683605564962,57.57588065205687,True
813125,orientation,active,1,20,175.73212818623233,25.24970225047315,8.459204500000908,29.51757406424082,-76.80657451424129,-42.62031619297326,True
813125,orientation,passive,1,21,138.78767896802574,171.235899172122,5.051747200001046,32.44822020409626,36.944449218206586,66.4620232824474,True
813125,orientation,passive,1,23,155.4355796197535,176.7526572096771,5.285225300000093,21.3170775899236,-16.647900651727753,15.800319552368506,True
813125,orientation,active,1,25,147.72462762204293,175.6723517968918,5.5592324000008375,27.947724174848872,7.710951997710566,29.028029587634165,True
813125,orientation,active,1,28,174.36416941608286,174.51640955553555,8.341477099998883,0.15224013945268666,-26.63954179403993,1.308182380808944,True
813125,orientation,passive,1,29,52.31717063341341,57.9946167919165,7.517801600000894,5.677446158503088,-57.95300121733055,-57.800761077877866,True
813125,orientation,passive,1,33,147.31221383494832,170.59017849155666,6.003084800000579,23.277964656608333,85.00495679846509,-89.31759704303182,True
813125,orientation,active,1,34,143.18018177953397,154.79887635452494,6.525967199999286,11.618694574990968,4.132032055414356,27.40999671202269,True
813125,orientation,passive,1,36,137.75733805441405,158.35151482893204,2.93615200000022,20.59417677451799,5.422843725119918,17.041538300110886,True
813125,orientation,passive,1,40,24.862893873420468,39.936383146969916,4.417243599998983,15.073489273549455,-67.10555581900641,-46.51137904448842,True
813125,orientation,active,1,41,129.6688276780375,158.00887008282288,4.243888799999695,28.34004240478538,75.19406619538296,-89.73244453106759,True
813125,orientation,active,1,42,10.10506876914553,30.963756532073518,3.9253032999986317,20.858687762927985,-60.43624109110803,-32.09619868632265,True
813125,orientation,active,1,45,152.76523968627228,177.51044707800085,4.8767910999995365,24.74520739172857,37.33982908287325,58.19851684580124,True
813125,orientation,passive,1,46,97.1797932658582,115.5599651718238,4.3340782999985095,18.38017190596561,55.58544642041409,80.33065381214266,True
813125,orientation,passive,1,47,148.82409695270923,154.2144351440405,4.4864929000013944,5.390338191331267,-51.64430368685103,-33.26413178088542,True
813125,orientation,active,1,50,112.6215258891428,147.52880770915152,4.458988000000318,34.90728182000872,36.202571063566424,41.59290925489768,True
813125,orientation,active,1,53,110.19492925154842,154.39781244855823,7.8085947999989,44.20288319700981,2.426596637594386,37.333878457603106,True
813125,orientation,passive,1,59,44.28299772430067,54.865806943084365,4.670429699999659,10.582809218783694,65.91193152724776,-69.88518527574246,True
813125,orientation,passive,1,60,120.22033313543692,62.81888891452276,5.93408890000137,-57.40144422091416,-75.93733541113625,-65.35452619235255,True
813125,orientation,active,2,1,130.99777609967654,153.24268182812344,3.475717599998461,22.244905728446895,,,False
813125,orientation,passive,2,4,74.69198673146798,90.0,4.067800300001181,15.308013268532022,56.305789368208565,78.55069509665546,True
813125,orientation,active,2,5,64.76020924918416,70.3461759419467,7.102610800000548,5.58596669276254,9.93177748228382,25.239790750815843,True
813125,orientation,active,2,7,122.46388934145568,143.88065915052024,5.376198500000214,21.41676980906456,-57.703680092271526,-52.117713399508986,True
813125,orientation,active,2,9,167.19574997505404,163.0446869479748,5.4924809999994295,-4.151063027079232,-44.73186063359836,-23.315090824533797,True
813125,orientation,passive,2,13,84.44591764953739,86.8636416316674,3.41861369999981,2.4177239821300134,82.74983232551665,78.59876929843742,True
813125,orientation,active,2,14,53.02446507534676,83.480198248343,4.143448700000704,30.455733172996247,31.421452574190624,33.83917655632064,True
813125,orientation,active,2,16,139.68653678528295,140.7406066389519,7.959017200000517,1.054069853668949,-86.66207170993619,-56.20633853693995,True
813125,orientation,passive,2,17,96.92713831361246,118.81079374297305,4.951718399999891,21.883655429360587,42.759398471670494,43.81346832533944,True
813125,orientation,active,2,20,48.74724062191103,45.0,8.20973530000083,-3.7472406219110326,48.17989769170143,70.063553121062,True
813125,orientation,passive,2,21,37.38288215326655,60.255118703057775,3.335329300000012,22.872236549791225,11.364358468644483,7.61711784673345,True
813125,orientation,active,2,23,97.64348656937932,129.8055710922652,5.107231300000194,32.16208452288589,-60.26060441611277,-37.388367866321545,True
813125,orientation,passive,2,24,89.32191050721624,156.86857918537254,4.270761700001685,67.5466686781563,8.321576062163075,40.483660585048966,True
813125,orientation,active,2,25,145.12684749468664,175.35202930861297,4.3613728000000265,30.225181813926326,-55.8049369874704,11.741731690685896,True
813125,orientation,active,2,26,57.147451866349655,86.42366562500264,4.760523799999646,29.276213758652986,87.97939562833699,-61.795422557736686,True
813125,orientation,passive,2,29,107.76116057192668,125.94211187138234,3.7018614999997226,18.180951299455657,-50.613708705577025,-21.33749494692404,True
813125,orientation,active,2,31,33.036081953513495,40.40945681439396,3.5423950999993394,7.37337486088046,74.72507861841319,-87.09397008213116,True
813125,orientation,active,2,32,154.13036279066867,174.50767544287257,5.009392199999866,20.377312652203898,58.90571916284483,66.27909402372529,True
813125,orientation,active,2,33,15.780710084269783,58.45703038239094,4.626878199998828,42.67632029812114,-41.6503472936011,-21.273034641397203,True
813125,orientation,passive,2,35,120.1177233198568,132.47050579516224,3.3679214000003412,12.352782475305446,75.662986764413,-61.66069293746585,True
813125,orientation,passive,2,39,81.79764073967826,90.0,5.570051099999546,8.202359260321742,38.320082580178536,50.67286505548398,True
813125,orientation,passive,2,42,126.4728599378145,144.1623470457217,7.567844600000171,17.689487107907198,-44.67521919813625,-36.472859937814505,True
813125,orientation,active,2,43,108.4137639268294,142.5030873910496,5.259320099999968,34.0893234642202,18.0590960109851,35.7485831188923,True
813125,orientation,passive,2,45,147.54351777138484,143.91492695714788,2.851898099999744,-3.628590814236958,-39.12975384455544,-5.040430380335238,True
813125,orientation,passive,2,47,158.3906711314813,147.9946167919165,4.368940900000098,-10.396054339564785,-10.847153360096456,-14.475744174333414,True
813125,orientation,active,2,52,37.69826050858417,54.34467190209968,4.69179409999947,16.646411393515507,-59.307589377102886,-69.70364371666767,True
813125,orientation,passive,2,54,21.905491621376868,54.61747481006087,4.118979700000864,32.711983188684,15.792768887207302,32.43918028072281,True
813125,orientation,active,2,57,74.59235639635183,79.04593735660168,4.042659600001571,4.453580960249852,-52.686864774974964,-19.974881586290962,True
813125,orientation,passive,3,3,172.7485693723571,0.8716527684053278,4.501559600001201,8.12308339604823,,,False
813125,orientation,passive,3,4,179.52414165590326,14.856050075213972,3.634970500000918,15.331908419310707,-6.775572283546154,1.347511112502076,True
813125,orientation,active,3,8,65.814249232455,67.10944834375168,3.409171699999206,1.2951991112966823,-66.29010757655175,-50.958199157241026,True
813125,orientation,active,3,10,5.211437432779644,146.30993247402023,7.257980399999724,-38.9015049587594,60.60281179967535,61.89801091097203,True
813125,orientation,passive,3,11,155.44098188933,149.23728046576107,4.668457900001158,-6.20370142356893,29.77045554344963,-9.131049415309775,True
813125,orientation,passive,3,15,140.2972848426411,157.2296210912378,3.551162599998861,16.932336248596698,15.143697046688914,8.939995623119984,True
813125,orientation,active,3,17,118.82869636029746,156.13423988036723,6.757860300000175,37.305543520069776,21.468588482343634,38.400924730940346,True
813125,orientation,active,3,19,114.41071255054032,143.8646233884108,6.243156000000454,29.453910837870467,4.417983809757132,41.72352732982691,True
813125,orientation,active,3,20,108.25492390537372,129.37759937291028,6.60822580000081,21.122675467536567,6.155788645166609,35.609699483037076,True
813125,orientation,passive,3,21,51.89345984759074,60.14456258457338,6.917988100000002,8.25110273698263,56.36146405778297,77.48413952531953,True
813125,orientation,passive,3,22,169.71669330252877,176.6335393365702,3.835054199998922,6.916846034041441,62.17676654506198,70.42786928204461,True
813125,orientation,active,3,28,16.56554878954967,41.82016988013575,4.9909368999999515,25.254621090586085,-26.8488554870209,-19.932009452979457,True
813125,orientation,active,3,29,173.40880584014684,3.60630862259666,6.0253670000001875,10.197502782449817,23.156742949402826,48.41136403998891,True
813125,orientation,passive,3,30,78.10003152331322,87.13759477388824,4.017780899999707,9.037563250575019,-84.69122568316638,-74.49372290071656,True
813125,orientation,active,3,31,140.95530893319832,166.5838165181591,4.724679000000833,25.628507584960772,-62.855277409885105,-53.817714159310086,True
813125,orientation,active,3,35,90.20878733506024,112.68441142412924,5.4781772999995155,22.475624089069,50.74652159813809,76.37502918309886,True
813125,orientation,passive,3,38,134.02504556569693,149.9158434412248,5.584350600000107,15.89079787552788,-43.81625823063669,-21.34063414156769,True
813125,orientation,passive,3,42,69.59423787390652,92.38594403038881,4.884515499999907,22.79170615648229,64.43080769179039,80.32160556731827,True
813125,orientation,passive,3,46,45.026803866610784,60.79690661597016,3.702294799999436,15.770102749359381,24.56743400729573,47.35914016377802,True
813125,orientation,active,3,49,87.53844189198304,114.86369657175187,4.075858099999095,27.325254679768832,-42.51163802537226,-26.741535276012883,True
813125,orientation,active,3,50,18.14549523706756,46.548157698977974,3.5449126000005435,28.40266246191041,69.39294665491548,-83.2817986653157,True
813125,orientation,passive,3,52,132.11130306885673,148.39823220596767,4.635001999999076,16.286929137110945,66.03419216821084,-85.56314536987875,True
813125,orientation,passive,3,57,59.540896666867525,69.64553065669959,6.649368599999207,10.104633989832067,72.5704064019892,88.85733553910015,True
813125,orientation,active,3,60,26.6528566347502,36.2926297284796,8.341091000000006,9.639773093729389,32.88804003211732,42.9926740219494,True
813125,orientation,passive,4,2,92.23647529548784,115.14478563067895,4.982675400000517,22.908310335191118,,,False
813125,orientation,passive,4,3,59.93477805632772,47.147585428298505,3.6187397000012425,-12.787192628029217,32.30169723916012,55.21000757435124,True
813125,orientation,passive,4,6,108.88994251101906,131.93771291459996,4.635573600000043,23.0477704035809,-48.955164454691335,-61.74235708272055,True
813125,orientation,active,4,7,155.39772037965955,157.97694450318875,5.377305700000306,2.579224123529201,-46.50777786864049,-23.46000746505959,True
813125,orientation,active,4,8,59.72138261283573,75.46554491945987,5.908706599999277,15.744162306624133,-84.32366223317618,-81.74443810964698,True
813125,orientation,passive,4,9,150.74904956323954,150.32691788792218,3.820001800000682,-0.4221316753173596,88.97233304959619,-75.28350464377966,True
813125,orientation,passive,4,11,178.27673787310468,160.99691942892022,3.068938000000344,-17.279818444184457,-27.52768830986514,-27.9498199851825,True
813125,orientation,active,4,12,67.48318125069886,68.89516141507036,4.393722199998592,1.4119801643714993,-69.20644337759418,-86.48626182177864,True
813125,orientation,active,4,13,146.08413317330863,150.3128183608063,5.560596200000418,4.2286851874976605,-78.60095192260977,-77.18897175823827,True
813125,orientation,passive,4,15,37.73040848844003,53.91492695714787,3.2007842999992135,16.184518468707836,-71.64627531513139,-67.41759012763373,True
813125,orientation,active,4,17,67.19954898441458,74.87599269168943,6.642441100000269,7.676443707274856,-29.46914049597455,-13.284622027266707,True
813125,orientation,active,4,20,116.68732794402096,132.51044707800082,3.6090277999992395,15.823119133979858,-49.48777895960639,-41.81133525233153,True
813125,orientation,active,4,21,97.34100125398052,128.25442035251717,5.69248609999886,30.91341909853665,19.346326690040442,35.1694458240203,True
813125,orientation,passive,4,23,91.4876796251989,120.96375653207352,7.152003799999875,29.476076906874624,5.853321628781629,36.76674072731828,True
813125,orientation,passive,4,24,139.7457613940039,138.48327146899766,4.150709699999425,-1.2624899250062356,-48.258081768805,-18.782004861930375,True
813125,orientation,passive,4,27,16.798476233926827,53.436904131405896,6.45114619999913,36.63842789747906,-57.05271483992294,-58.31520476492918,True
813125,orientation,active,4,30,161.1547023703267,171.0273733851036,6.110823699998946,9.872671014776898,35.64377386360013,72.2822017610792,True
813125,orientation,active,4,31,47.011670858628975,29.744881296942225,4.375892899999599,-17.26678956168675,-65.85696848830227,-55.98429747352537,True
813125,orientation,passive,4,36,176.26277004447658,9.462322208025617,4.21764179999991,13.199552163549043,50.74890081415239,33.48211125246564,True
813125,orientation,active,4,37,111.04172328914788,125.48397979503183,7.125767699999415,14.442256505883947,65.2210467553287,78.42059891887772,True
813125,orientation,passive,4,38,28.53803768884681,55.18132000651444,3.9515009000006103,26.643282317667627,82.50368560030108,-83.05405789381498,True
813125,orientation,active,4,42,97.35077559674632,128.0887728809753,3.4838003999993816,30.737997284228996,-68.8127379078995,-42.16945559023188,True
813125,orientation,passive,4,44,76.45019081655803,82.8749836510982,3.6860529000000497,6.42479283454017,20.900584780188282,51.63858206441728,True
813125,orientation,active,4,45,102.77359883573756,128.73067498296544,5.608633900001223,25.95707614722788,-26.323408019179524,-19.898615184639354,True
813125,orientation,active,4,46,87.93717901726511,99.46232220802561,7.360662899998715,11.525143190760502,14.83641981847245,40.793495965700345,True
813125,orientation,active,4,53,9.968894133350974,47.24574256589507,4.4926548000003095,37.2768484325441,77.96828488391412,89.49342807467463,True
813125,orientation,passive,4,54,155.74363646032026,178.18744731448442,3.7344145999995817,22.443810854164155,34.22525767303071,71.5021061055748,True
813125,orientation,passive,4,55,153.69568023499843,175.8295634751579,2.835910600000716,22.133883240159463,2.047956225321826,24.49176707948598,True
813125,orientation,active,4,59,110.11645806431936,152.52556837372288,4.960209899998972,42.4091103094035,43.57922217067909,65.71310541083852,True
813125,orientation,passive,5,1,109.96468847407584,149.85303224027348,2.4344925999994302,39.888343766197636,,,False
813125,orientation,passive,5,2,176.87326449893678,3.122130462115706,4.569725500001368,6.248865963178929,-66.90857602486093,-27.0202322586633,True
813125,orientation,active,5,3,139.03677295839526,172.53943387383165,4.043662100000802,33.502660915436394,37.836491540541516,44.085357503720445,True
813125,orientation,passive,5,5,175.10951559261582,178.57973445360096,4.069414600000528,3.470218860985142,-36.07274263422056,-2.5700817187841665,True
813125,orientation,active,5,9,105.9700374496572,150.64224645720873,4.009068800000023,44.672209007551544,69.13947814295864,72.60969700394378,True
813125,orientation,passive,5,14,98.862145795979,131.4072782349891,3.6176531000000978,32.54513243901009,7.107891653678195,51.78010066122971,True
813125,orientation,active,5,15,78.54604440271656,88.12212255271464,4.4442088000000695,9.576078149998082,20.316101393262443,52.861233832272546,True
813125,orientation,active,5,16,96.9431815856425,126.86989764584402,5.425446199998987,29.926716060201514,-18.397137182925945,-8.821059032927863,True
813125,orientation,active,5,18,45.42237816086377,75.1557603217315,4.692732299999989,29.733382160867734,51.520803424778734,81.44751948498026,True
813125,orientation,active,5,22,157.64115153970474,166.18497465873838,3.4928808999993635,8.543823119033647,67.78122662115902,-82.48539121797323,True
813125,orientation,passive,5,23,60.460154677730245,68.55226367289465,3.3680027999998856,8.09210899516441,-82.8190031380255,-74.27518001899188,True
813125,orientation,passive,5,26,139.8600783352667,56.6893691754392,6.217898099999729,-83.17070915982751,-79.39992365753646,-71.30781466237205,True
813125,orientation,passive,5,27,91.28170114029156,110.4519027480616,7.418117899998833,19.17020160777004,48.57837719497513,-34.59233196485236,True
813125,orientation,passive,5,28,52.51732633373612,99.63753811293094,3.9859457000002294,47.12021177919482,38.76437480655545,57.93457641432548,True
813125,orientation,passive,5,30,148.608061026566,148.26085920418484,2.752232599999843,-0.3472018223811517,83.90926530717013,-48.97052291363505,True
813125,orientation,passive,5,31,130.6742368360108,147.2647737278924,2.4018838000010874,16.590536891881584,17.933824190555185,17.586622368174034,True
813125,orientation,active,5,32,49.708636971302674,71.56505117707799,4.244753800001035,21.85641420577531,80.96559986470814,-82.44386324341028,True
813125,orientation,passive,5,33,82.1856498943087,86.6335393365702,3.368759699999373,4.4478894422614985,-32.47701292300602,-10.620598717230706,True
813125,orientation,active,5,34,167.96313846625478,165.1243179983612,3.493131799999901,-2.8388204678935836,-85.77748857194608,-81.32959912968458,True
813125,orientation,active,5,36,54.89177722508079,51.41878673023879,7.1589929000001575,-3.4729904948419943,-66.92863875882603,-69.76745922671961,True
813125,orientation,passive,5,38,150.83069105312893,154.06919353734813,3.269076600000062,3.2385024842191967,84.06108617195184,80.58809567710986,True
813125,orientation,passive,5,40,123.08576911156236,158.41102092616683,3.23401179999928,35.32525181460447,27.744921941566574,30.98342442578577,True
813125,orientation,active,5,41,103.32411130537928,137.97802065194975,5.658941699999559,34.65390934657047,19.76165780618308,55.08690962078754,True
813125,orientation,active,5,42,149.25737360050215,151.04278240121175,4.559605599999486,1.7854088007096038,-45.93326229512287,-11.2793529485524,True
813125,orientation,active,5,43,57.896647344047096,78.23171106797936,3.0589770999990833,20.335063723932265,-88.63927374354495,-86.85386494283534,True
813125,orientation,active,5,46,64.6933702024719,68.47739989209292,4.9921887000000424,3.784029689621022,-6.7967228584248005,13.538340865507465,True
813125,orientation,active,5,47,31.172261161672925,55.5160463845448,4.742211099999622,24.343785222871873,33.521109040798976,37.30513873042,True
813125,orientation,passive,5,48,164.92387897915594,167.93869054295553,4.96954790000018,3.014811563799583,46.24838218251699,70.59216740538886,True
813125,orientation,passive,5,49,163.73784661100274,176.78451600825179,4.485560400000395,13.046669397249048,1.1860323681532066,4.2008439319527895,True
813125,orientation,active,5,50,151.7661365111908,161.78290480217515,4.1922877000010885,10.016768290984345,11.97171009981193,25.018379497060977,True
813125,orientation,passive,5,51,77.27393380346771,100.1755108430432,2.7861725999991904,22.901577039575486,74.4922027077231,84.50897099870744,True
813125,orientation,passive,5,52,94.04202936505553,117.69947280805499,3.7700674000006984,23.657443442999465,-16.768095561587813,6.133481477987672,True
813125,orientation,active,5,56,65.08860976911502,76.5781649321138,4.158940100000564,11.48955516299877,28.953419595940503,52.610863038939954,True
813125,orientation,active,5,57,111.35627479166796,125.41044829085175,4.211237600000459,14.05417349918379,-46.26766502255293,-34.778109859554164,True
813125,orientation,passive,5,59,15.49171717354148,60.89952258845656,4.168073900000309,45.40780541491509,-84.13544238187353,-70.08126888268973,True
813125,orientation,passive,6,1,35.38516705274684,54.04827608684908,2.569173700000192,18.663109034102234,,,False
813125,orientation,passive,6,2,74.99899574349578,88.0585136090856,3.851733699998931,13.059517865589811,-39.613828690748946,-20.950719656646697,True
813125,orientation,active,6,3,69.02316229330576,92.2025981617658,3.592583599999216,23.179435868460047,5.975833450190024,19.035351315779835,True
813125,orientation,passive,6,6,61.069791670664216,100.70135072389914,7.0525593000006666,39.63155905323492,7.953370622641543,31.13280649110159,True
813125,orientation,active,6,7,167.90403192218525,164.05460409907715,3.4609843999992336,-3.849427823108101,73.16575974847896,-67.20268119828611,True
813125,orientation,passive,6,10,133.72121300305486,134.59651526494125,4.9683113000005505,0.8753022618863895,34.1828189191304,30.333391096022297,True
813125,orientation,passive,6,13,88.52730300049072,101.04890567165477,4.501102100000935,12.521602671164047,45.19391000256414,46.06921226445053,True
813125,orientation,active,6,14,69.60306279749213,75.87681307906041,4.410511300000508,6.273750281568283,18.92424020299859,31.445842874162636,True
813125,orientation,passive,6,16,128.37499694874637,156.2796044276954,3.536234499999864,27.904607478949032,-58.77193415125424,-52.49818386968596,True
813125,orientation,active,6,19,7.059570085297251,35.67640822186198,3.6259929000002558,28.616838136564724,-58.68457313655088,-30.77996565760185,True
813125,orientation,passive,6,20,22.790377696587868,52.38604315126727,3.0028818999999203,29.595665454679406,-15.730807611290615,12.886030525274123,True
813125,orientation,active,6,22,90.9696262800894,116.56505117707799,5.010525900000175,25.59542489698859,-68.17924858350153,-38.58358312882213,True
813125,orientation,passive,6,25,36.34300838879122,54.734232340654344,4.368696500001079,18.391223951863125,54.62661789129817,80.22204278828679,True
813125,orientation,active,6,26,98.89408543407777,127.56859202882748,6.7273861000007855,28.674506594749715,-62.55107704528655,-44.15985309342342,True
813125,orientation,passive,6,27,60.93129064172812,93.13246519856803,6.751353000000108,32.2011745568399,37.962794792349655,66.63730138709937,True
813125,orientation,active,6,29,91.72252620788998,117.63160471455092,4.577421999999842,25.909078506660933,-30.791235566161866,1.409938990678043,True
813125,orientation,passive,6,30,166.5348690632426,2.367469467557528,3.5352529000006143,15.832600404314917,-74.81234285535263,-48.90326434869169,True
813125,orientation,active,6,31,54.25831197910107,56.23928419969768,3.8587962999999945,1.9809722205966125,-67.72344291585847,-51.890842511543546,True
813125,orientation,passive,6,37,178.68349012541051,12.075288583193544,3.4024455999988277,13.39179845778304,55.574821853690565,57.55579407428718,True
813125,orientation,active,6,38,53.3838023437727,62.65898119613305,3.110557799999242,9.275178852360341,-54.70031221836217,-41.30851376057916,True
813125,orientation,passive,6,39,72.99198718640956,79.99655991644103,5.202572900001087,7.0045727300314695,-19.60818484263686,-10.333005990276519,True
813125,orientation,passive,6,41,30.655188698648274,45.587628416239966,2.2020872999996755,14.932439717591691,42.336798487761286,49.341371217792755,True
813125,orientation,active,6,44,45.21437317881929,53.28579702395376,4.0093558999997185,8.071423845134476,-14.559184480171012,0.373255237420679,True
813125,orientation,passive,6,46,65.01754352305336,80.90972307917768,4.852165700000114,15.892179556124319,-19.803170344234076,-11.7317464990996,True
813125,orientation,passive,6,47,106.2957794553899,128.36748538486154,3.317804600001182,22.071705929471634,-41.27823593233654,-25.386056376212224,True
813125,orientation,passive,6,48,145.3441955329793,141.23174560504012,5.085231399999884,-4.1124499279391955,-39.04841607758941,-16.976710148117775,True
813125,orientation,passive,6,49,12.775665357864304,44.36340642403651,5.451847299999372,31.587741066172214,-47.431469824885,-51.543919752824195,True
813125,orientation,passive,6,50,115.0024829892902,141.60846433831685,3.935873600000832,26.60598134902665,77.77318236857411,-70.63907656525369,True
813125,orientation,passive,6,52,149.91037373571152,160.76135548309156,2.5359274000002188,10.850981747380047,-34.907890746421316,-8.301909397394667,True
813125,orientation,active,6,53,48.95273331872316,56.948553250418506,3.744694999999865,7.995819931695337,-79.04235958301166,-68.19137783563161,True
813125,orientation,passive,6,54,85.34753821959212,89.68861295972518,3.268314700000701,4.3410747401330525,-36.39480490086896,-28.39898496917362,True
813125,orientation,passive,6,60,147.94496567131492,160.05761541830302,2.4514546999998856,12.112649746988097,-62.597427451722794,-58.25635271158974,True
813125,orientation,passive,7,3,107.89917433039524,141.51242302928785,6.335623900000428,33.613248698892605,,,False
813125,orientation,passive,7,4,40.37484967670688,75.68517308959512,3.684792699999889,35.31032341288824,67.52432465368835,-78.86242664741903,True
813125,orientation,active,7,5,166.07465946416,173.38653951768524,3.5940943000005063,7.311880053525243,54.30019021254688,89.61051362543515,True
813125,orientation,passive,7,6,111.99686642677908,132.38424512457811,2.9168202000000747,20.387378697799036,54.0777930373809,61.38967309090617,True
813125,orientation,passive,7,7,42.63635767486994,39.28940686250036,4.568645299999844,-3.3469508123695846,69.36050875190915,89.74788744970817,True
813125,orientation,passive,7,8,102.4091071377691,116.65701864145413,4.669262899999012,14.247911503685032,-59.77274946289916,-63.11970027526874,True
813125,orientation,active,7,10,96.30578040189212,129.22567409733674,3.359096000000136,32.919893695444614,6.103326735876976,20.351238239562008,True
813125,orientation,active,7,11,3.430652615257064,25.513870427534243,4.060548499999641,22.083217812277184,-87.12487221336494,-54.204978517920324,True
813125,orientation,active,7,13,72.26425902059583,90.0,6.0269926999990275,17.73574097940417,-68.83360640533877,-46.75038859306159,True
813125,orientation,active,7,16,37.486757061232936,60.80251395393552,4.958913999999822,23.31575689270258,34.777501959362894,52.513242938767064,True
813125,orientation,active,7,17,91.35225006065896,107.74467162505694,5.376524400000562,16.392421564397978,-53.865492999426024,-30.549736106723444,True
813125,orientation,active,7,18,35.495002448824906,64.29004621918874,3.09390379999968,28.795043770363833,55.857247611834055,72.24966917623203,True
813125,orientation,passive,7,19,118.7949258956118,124.24903300681194,3.6367284000007203,5.454107111200145,-83.29992344678689,-54.50487967642306,True
813125,orientation,passive,7,20,88.98164426567793,108.43494882292201,5.884597499998563,19.45330455724408,29.81328162993387,35.26738874113401,True
813125,orientation,active,7,26,39.68867163248386,44.64413016937812,5.825350699999035,4.95545853689427,49.29297263319407,68.74627719043815,True
813125,orientation,passive,7,28,85.8184921435307,103.61067670031576,5.9019680000001244,17.79218455678506,-46.129820511046844,-41.17436197415258,True
813125,orientation,active,7,30,67.19201500145265,80.53767779197436,5.575210900000457,13.345662790521715,18.62647714207806,36.41866169886312,True
813125,orientation,active,7,32,65.50374968217197,82.26640190097714,3.459075599999778,16.762652218805172,1.6882653192806742,15.033928109802389,True
813125,orientation,passive,7,39,139.6576395212815,158.4046895510323,3.7516567000002397,18.747050029750795,-74.15388983910954,-57.391237620304366,True
813125,orientation,passive,7,42,13.944193128951492,54.05239792362171,2.401149400000577,40.10820479467023,-54.28655360766999,-35.53950357791919,True
813125,orientation,active,7,44,68.2879975524759,71.89623696549336,3.0935100999995484,3.6082394130174578,-54.34380442352441,-14.235599628854189,True
813125,orientation,active,7,46,46.87827716840194,47.90191046888364,5.493669199999204,1.0236333004817055,21.409720384073964,25.01795979709142,True
813125,orientation,passive,7,47,84.10251313422822,86.33344559745937,6.251771899998857,2.230932463231156,-37.22423596582628,-36.200602665344576,True
813125,orientation,active,7,48,110.54818656278913,122.60459316624153,3.560299799999484,12.056406603452402,-26.44567342856091,-24.214740965329753,True
813125,orientation,active,7,51,97.7788815555089,92.44704864232362,3.109279599999354,-5.331832913185281,12.769305007280224,24.825711610732625,True
813125,orientation,passive,7,55,37.27778377537709,35.0737544933483,3.4666247999994084,-2.2040292820287846,60.50109778013183,55.16926486694655,True
813125,orientation,active,7,58,150.7775685614298,156.94869908352698,3.3259568000012223,6.171130522097172,66.50021521394729,64.2961859319185,True
813125,orientation,passive,7,59,104.2489608502494,123.27488798483492,4.484518100000059,19.025927134585515,46.5286077111804,52.69973823327757,True
813125,orientation,active,8,1,58.13369955683914,85.68397248013439,4.043269100000543,27.55027292329524,,,False
813125,orientation,passive,8,2,76.985126034502,94.39870535499553,4.552681900000607,17.413579320493525,-18.85142647766287,8.698846445632384,True
813125,orientation,passive,8,7,177.20882035408854,178.4377750831576,4.785626400000183,1.228954729069045,79.77630568041346,-82.81011499909302,True
813125,orientation,passive,8,8,174.9900899970033,165.89736516026653,3.6518134000007194,-9.092724836736778,2.218730357085235,3.44768508615428,True
813125,orientation,passive,8,11,87.21143625037276,96.3401917459099,5.052840700000161,9.128755495537149,87.77865374663054,78.68592890989379,True
813125,orientation,passive,8,12,92.5447648509512,113.9624889745782,5.668693399999938,21.41772412362701,-5.33332860057844,3.795426894958709,True
813125,orientation,passive,8,19,87.15222515318668,102.2224160868808,7.535250900000392,15.070190933694121,5.392539697764519,26.81026382139153,True
813125,orientation,active,8,23,91.73726313462558,118.39998632060852,5.026802000000316,26.66272318598294,-4.5850379814389015,10.48515295225522,True
813125,orientation,active,8,24,11.679643292871525,49.39870535499551,4.460041099999216,37.71906206212398,80.05761984175405,-73.27965697226301,True
813125,orientation,passive,8,26,89.4483089678635,108.43494882292202,3.7692099999985658,18.986639855058527,-77.76866567499198,-40.04960361286798,True
813125,orientation,active,8,27,88.92205605369782,111.54097591853844,5.1446355000007316,22.61891986484062,0.5262529141656813,19.51289276922421,True
813125,orientation,passive,8,30,11.870667049084052,54.332077841616986,6.177401899999495,42.461410792532945,77.05138900461378,-80.3296911305456,True
813125,orientation,active,8,31,57.87993264883119,58.10920819815429,4.593778899999961,0.22927554932309135,-46.00926559974714,-3.5478548072142075,True
813125,orientation,active,8,32,20.00140984582957,50.47736872882888,3.0297778000003746,30.475958882999308,37.87852280300163,38.10779835232472,True
813125,orientation,active,8,40,129.16584569595125,145.30484646876602,5.225326899999345,16.139000772814768,70.83556414987834,-78.68847696712237,True
813125,orientation,passive,8,41,172.0815506484636,9.462322208025617,3.918867699999282,17.38077155956202,-42.91570495251236,-26.77670417969759,True
813125,orientation,passive,8,42,63.38379934568421,93.57633437499734,5.721560399997543,30.192535029313134,-71.30224869722059,-53.92147713765859,True
813125,orientation,active,8,43,45.28487472975485,75.57922687248902,6.725300399998559,30.29435214273417,18.098924615929363,48.2914596452425,True
813125,orientation,passive,8,44,162.7213963777252,150.76925659784177,2.869410200000857,-11.952139779883424,62.56347835202965,-87.14216950523618,True
813125,orientation,active,8,46,136.34745059422693,155.1576108945448,5.494499799999176,18.810160300317875,26.37394578349827,14.421806003614847,True
813125,orientation,active,8,49,37.89071552183203,53.7461622625552,4.6925953999998455,15.855446740723181,-81.5432649276051,-62.73310462728722,True
813125,orientation,active,8,50,171.06384290419504,1.7899106082460694,3.3608723000033933,10.726067704051019,46.82687261763698,62.68231935836016,True
813125,orientation,active,8,53,45.57657394493553,45.0,2.927537300001859,-0.5765739449355323,-54.512731040740505,-43.786663336689465,True
813125,orientation,passive,8,56,154.28270642039092,7.08121224465871,2.3517852000004495,32.79850582426778,71.29386752454462,70.71729357960908,True
813125,orientation,passive,8,58,105.00063602139971,121.94997144633315,2.3540195999994467,16.949335424933437,49.28207039899121,82.08057622325902,True
KL,color,active,1,4,262.0,278.18638502712645,3.359208700014335,16.186385027126448,,,False
KL,color,active,1,5,178.0,173.31451846368287,3.1262555999855977,-4.685481536317127,84.0,100.18638502712645,True
KL,color,active,1,7,210.0,212.18894935457763,3.442583600000944,2.1889493545776304,-32.0,-36.68548153631713,True
KL,color,passive,1,8,48.0,54.77254205609329,2.7595424000173807,6.7725420560933,162.0,164.18894935457763,True
KL,color,active,1,10,22.0,28.675959242477067,3.259503200009931,6.675959242477063,26.0,32.7725420560933,True
KL,color,passive,1,11,248.0,253.80452711502988,4.575307499995688,5.8045271150298845,134.0,140.67595924247706,True
KL,color,active,1,13,22.0,25.098461545140538,2.7927685000177007,3.0984615451405375,-134.0,-128.19547288497012,True
KL,color,active,1,14,92.0,114.1988031856222,2.7093268999888096,22.198803185622182,-70.0,-66.90153845485946,True
KL,color,passive,1,15,196.0,196.05154821950865,2.059495599998627,0.0515482195086463,-104.0,-81.8011968143778,True
KL,color,passive,1,17,320.0,294.89265681598874,2.9927281999844126,-25.107343184011256,-124.0,-123.94845178049135,True
KL,color,passive,1,19,170.0,180.6182757795167,4.4757717000029515,10.618275779516694,150.0,124.89265681598874,True
KL,color,passive,1,20,152.0,154.12168041674576,6.258499499992524,2.121680416745761,18.0,28.618275779516694,True
KL,color,active,1,21,144.0,147.86275101895822,3.6264958000101615,3.862751018958221,8.0,10.121680416745761,True
KL,color,passive,1,27,260.0,275.0306751409608,2.6925161000108346,15.030675140960795,-116.0,-112.13724898104178,True
KL,color,active,1,33,300.0,293.48411529050486,3.5428507999749854,-6.51588470949514,-40.0,-24.969324859039205,True
KL,color,active,1,37,256.0,274.51913771470646,3.225756600004388,18.51913771470646,44.0,37.48411529050486,True
KL,color,active,1,39,44.0,41.82781645416125,2.992517599981511,-2.172183545838749,-148.0,-129.48086228529354,True
KL,color,passive,1,41,188.0,180.45653041409903,1.8094133000122383,-7.543469585900965,-144.0,-146.17218354583875,True
KL,color,active,1,42,90.0,77.96279767963426,3.1866343000147026,-12.037202320365736,98.0,90.456530414099,True
KL,color,active,1,44,90.0,96.36356823564223,3.2885595000116155,6.363568235642219,0.0,-12.037202320365736,True
KL,color,passive,1,46,352.0,37.58062895711954,2.0674833999946713,45.58062895711953,98.0,104.36356823564222,True
KL,color,active,1,47,12.0,19.10754714052334,3.8248122000077274,7.107547140523337,-20.0,25.58062895711953,True
KL,color,active,1,48,194.0,195.12935206384665,3.7330660999868996,1.1293520638466532,178.0,-174.89245285947666,True
KL,color,passive,1,50,342.0,342.434985312707,5.213599799986696,0.43498531270699914,-148.0,-146.87064793615335,True
KL,color,active,1,51,126.0,103.05824339487128,5.0300817000097595,-22.941756605128717,-144.0,-143.565014687293,True
KL,color,passive,1,52,248.0,242.88755357204423,4.443218200001866,-5.112446427955774,-122.0,-144.94175660512872,True
KL,color,passive,1,53,212.0,207.6188680737664,2.609540699981153,-4.381131926233593,36.0,30.887553572044226,True
KL,color,active,1,55,310.0,330.94539590092285,5.408999599982053,20.945395900922847,-98.0,-102.38113192623359,True
KL,color,passive,1,57,262.0,264.7508124792657,3.392118499992648,2.750812479265676,48.0,68.94539590092285,True
KL,color,active,1,59,306.0,288.434948822922,4.025804600008996,-17.565051177077976,-44.0,-41.249187520734324,True
KL,color,passive,1,60,280.0,281.79342968491045,2.5265664999897126,1.7934296849104499,26.0,8.434948822922024,True
KL,color,active,2,2,346.0,355.0631170629905,3.009141799993813,9.0631170629905,,,False
KL,color,passive,2,3,346.0,351.73444688278244,3.3092251000051647,5.734446882782436,0.0,9.0631170629905,True
KL,color,passive,2,5,68.0,49.84400037508068,4.02540159999603,-18.155999624919332,-82.0,-76.26555311721756,True
KL,color,passive,2,8,228.0,238.13847246401943,2.4928159000118058,10.13847246401943,-160.0,-178.15599962491933,True
KL,color,active,2,11,266.0,271.3875157474432,3.8759389000188094,5.387515747443217,-38.0,-27.86152753598057,True
KL,color,active,2,12,282.0,286.88033016552384,3.125836499995671,4.880330165523844,-16.0,-10.612484252556783,True
KL,color,active,2,13,120.0,94.15605660127645,3.2758566999983714,-25.843943398723553,162.0,166.88033016552384,True
KL,color,active,2,15,264.0,269.041965891324,3.142358000011768,5.0419658913240255,-144.0,-169.84394339872355,True
KL,color,active,2,16,208.0,214.35433665503967,6.342723200010255,6.354336655039674,56.0,61.041965891324026,True
KL,color,active,2,17,238.0,230.68089081796597,2.722198100003766,-7.319109182034026,-30.0,-23.645663344960326,True
KL,color,active,2,18,84.0,83.68156889851024,3.068021199986106,-0.3184311014897503,154.0,146.68089081796597,True
KL,color,passive,2,21,80.0,81.3843518158359,3.661104600003455,1.3843518158358847,4.0,3.6815688985102497,True
KL,color,active,2,23,198.0,194.51105950016907,2.6947807999968063,-3.4889404998309317,-118.0,-116.6156481841641,True
KL,color,active,2,25,272.0,273.66039854787545,3.154428100009909,1.6603985478754453,-74.0,-77.48894049983093,True
KL,color,active,2,26,252.0,262.0522846862687,4.72768760001054,10.052284686268706,20.0,21.660398547875445,True
KL,color,active,2,27,194.0,208.5005774838058,3.7568638000232113,14.500577483805813,58.0,68.0522846862687,True
KL,color,passive,2,28,186.0,206.9192709578924,2.086094799975399,20.919270957892394,8.0,22.500577483805813,True
KL,color,passive,2,32,256.0,272.24175066319737,2.648021200002404,16.241750663197365,-70.0,-49.080729042107606,True
KL,color,passive,2,33,120.0,108.24375115828724,6.665410300018266,-11.756248841712761,136.0,152.24175066319737,True
KL,color,active,2,35,60.0,60.73007283718636,3.3956973000022117,0.7300728371863556,60.0,48.24375115828724,True
KL,color,active,2,36,34.0,33.908961511680275,2.961422099993797,-0.09103848831972527,26.0,26.730072837186356,True
KL,color,active,2,37,124.0,102.95086843224864,4.409025700006168,-21.049131567751374,-90.0,-90.09103848831973,True
KL,color,active,2,43,36.0,44.57768003523152,2.9263739000016358,8.577680035231538,88.0,66.95086843224863,True
KL,color,passive,2,46,106.0,118.12062452546186,1.8758153000089806,12.120624525461864,-70.0,-61.42231996476848,True
KL,color,active,2,48,32.0,36.6709547664834,4.025731899979064,4.670954766483391,74.0,86.12062452546184,True
KL,color,passive,2,50,262.0,269.59220774343424,3.0256686999928206,7.592207743434244,130.0,134.67095476648342,True
KL,color,passive,2,52,214.0,236.42406734200108,2.4091178000089712,22.42406734200108,48.0,55.592207743434244,True
KL,color,active,2,54,308.0,277.24957219510907,3.359261899982812,-30.750427804890933,-94.0,-71.57593265799892,True
KL,color,active,2,55,138.0,102.59332995610312,3.075687100005098,-35.406670043896895,170.0,139.24957219510907,True
KL,color,active,2,58,194.0,210.6997225508144,3.175739300000714,16.699722550814414,-56.0,-91.40667004389688,True
KL,color,active,3,1,252.0,270.381966204729,2.6423863999950754,18.381966204728997,,,False
KL,color,passive,3,2,152.0,160.63023796509864,3.625961299985647,8.630237965098644,100.0,118.381966204729,True
KL,color,active,3,3,312.0,295.85000836971994,3.0928683000095134,-16.149991630280056,-160.0,-151.36976203490136,True
KL,color,active,3,4,296.0,288.0087394086771,2.6938009999867063,-7.9912605913228845,16.0,-0.1499916302800557,True
KL,color,active,3,6,266.0,276.0511584453929,2.209628999989718,10.0511584453929,30.0,22.008739408677116,True
KL,color,active,3,11,218.0,220.30931554426516,3.525976000004448,2.3093155442651607,48.0,58.0511584453929,True
KL,color,passive,3,13,78.0,70.27111601172508,6.959125599998515,-7.728883988274902,140.0,142.30931554426513,True
KL,color,active,3,14,146.0,109.38780532622296,4.126827400002867,-36.612194673777026,-68.0,-75.72888398827492,True
KL,color,passive,3,15,352.0,18.06450713441162,3.117821599996887,26.0645071344116,154.0,117.38780532622297,True
KL,color,active,3,18,258.0,271.3685808069531,2.5445808999936617,13.368580806953105,94.0,120.06450713441166,True
KL,color,passive,3,19,20.0,36.44917518460006,2.167703300016001,16.44917518460005,-122.0,-108.6314191930469,True
KL,color,passive,3,20,186.0,181.968152642762,2.844073099986417,-4.031847357238007,-166.0,-149.55082481539995,True
KL,color,active,3,25,104.0,89.18734840574626,2.9656561000156216,-14.812651594253737,82.0,77.96815264276199,True
KL,color,passive,3,26,132.0,80.5023536413864,2.8955868000050486,-51.49764635861359,-28.0,-42.81265159425374,True
KL,color,active,3,27,246.0,261.58765470957314,3.285296799992693,15.587654709573144,-114.0,-165.4976463586136,True
KL,color,active,3,29,314.0,291.4231115173985,4.62750960001722,-22.576888482601476,-68.0,-52.412345290426856,True
KL,color,active,3,30,22.0,22.380135051959574,2.6028312999987975,0.3801350519595701,-68.0,-90.57688848260148,True
KL,color,active,3,31,268.0,273.9516544813823,3.10063410000339,5.95165448138232,114.0,114.38013505195954,True
KL,color,active,3,32,56.0,40.74842214869173,2.9683072000043467,-15.25157785130827,-148.0,-142.04834551861768,True
KL,color,active,3,33,34.0,29.911369187263755,3.710966599988751,-4.088630812736255,22.0,6.748422148691731,True
KL,color,passive,3,34,118.0,87.71699189170894,2.0123459000024013,-30.283008108291057,-84.0,-88.08863081273624,True
KL,color,active,3,35,280.0,273.722901813588,3.067311699996935,-6.27709818641199,-162.0,167.71699189170897,True
KL,color,passive,3,36,298.0,270.7957235527393,1.8506886000109262,-27.204276447260725,-18.0,-24.27709818641199,True
KL,color,active,3,37,92.0,108.93533592171424,4.062016099982429,16.935335921714227,-154.0,178.79572355273928,True
KL,color,passive,3,38,308.0,358.7269699799433,3.7978659000075368,50.726969979943306,144.0,160.93533592171423,True
KL,color,active,3,39,164.0,173.1492433382201,3.8782904999970924,9.149243338220089,144.0,-165.2730300200567,True
KL,color,passive,3,42,50.0,53.30216123488386,2.8272621000071467,3.3021612348838687,114.0,123.14924333822012,True
KL,color,active,3,43,320.0,291.2042544843144,3.227273099997774,-28.79574551568561,90.0,93.30216123488384,True
KL,color,active,3,46,22.0,24.004007648117614,2.7444552999804728,2.0040076481176072,-62.0,-90.79574551568561,True
KL,color,active,3,47,46.0,50.49232455712744,2.9947221000038553,4.492324557127432,-24.0,-21.995992351882393,True
KL,color,active,3,48,308.0,292.34810834790943,3.3771691999863833,-15.651891652090569,98.0,102.49232455712746,True
KL,color,passive,3,51,22.0,28.26400414852393,1.8258003999944776,6.264004148523924,-74.0,-89.65189165209057,True
KL,color,active,3,52,44.0,47.51252176402915,4.626248099987151,3.5125217640291453,-22.0,-15.735995851476076,True
KL,color,passive,3,54,18.0,23.51455668293658,2.8762937000137754,5.514556682936586,26.0,29.512521764029145,True
KL,color,active,3,56,88.0,83.30131891241228,4.541923500014946,-4.698681087587715,-70.0,-64.48544331706341,True
KL,color,active,3,57,272.0,272.1797559917415,2.6761427000164986,0.17975599174150148,176.0,171.30131891241228,True
KL,color,active,3,58,44.0,47.91083782616775,4.308985099982237,3.91083782616775,-132.0,-131.8202440082585,True
KL,color,passive,3,60,224.0,235.129272617366,2.37769340001978,11.129272617366013,-180.0,-176.08916217383225,True
KL,color,passive,4,2,226.0,240.94539590092285,2.3259886000014376,14.945395900922847,,,False
KL,color,active,4,4,100.0,89.59508957121425,2.5761545999853297,-10.40491042878574,126.0,140.94539590092285,True
KL,color,passive,4,7,280.0,287.45283165969784,2.179437000013422,7.452831659697836,-180.0,169.59508957121426,True
KL,color,active,4,8,344.0,331.89373017919814,3.6928580999956466,-12.106269820801856,-64.0,-56.547168340302164,True
KL,color,passive,4,9,62.0,59.50477327719653,2.5925177999893094,-2.4952267228034657,-78.0,-90.10626982080186,True
KL,color,active,4,11,48.0,42.20371373615458,2.7257214999990538,-5.796286263845417,14.0,11.504773277196534,True
KL,color,active,4,12,114.0,97.85331330197822,3.19303910000599,-16.146686698021767,-66.0,-71.79628626384542,True
KL,color,active,4,13,338.0,309.5659414584595,3.009071899985429,-28.43405854154048,136.0,119.85331330197823,True
KL,color,active,4,16,220.0,226.82946433484736,3.1764135000121314,6.8294643348473585,118.0,89.56594145845952,True
KL,color,passive,4,18,44.0,54.57586898667282,3.209575199988194,10.575868986672816,176.0,-177.17053566515267,True
KL,color,active,4,19,150.0,157.3952606533804,4.94327689998363,7.395260653380404,-106.0,-95.42413101332718,True
KL,color,active,4,20,40.0,48.18751360909175,3.226057799998216,8.187513609091752,110.0,117.39526065338043,True
KL,color,active,4,22,202.0,203.49856567595208,3.1337225000024773,1.4985656759520793,-162.0,-153.81248639090825,True
KL,color,active,4,25,52.0,51.96011049928696,2.7286391000093317,-0.03988950071303066,150.0,151.49856567595208,True
KL,color,passive,4,26,92.0,90.40491042878575,3.110926699999254,-1.5950895712142596,-40.0,-40.03988950071303,True
KL,color,passive,4,28,44.0,38.1231692625632,2.412241700017603,-5.876830737436791,48.0,46.40491042878574,True
KL,color,passive,4,29,128.0,140.27171633322254,4.010773100017104,12.271716333222543,-84.0,-89.87683073743679,True
KL,color,passive,4,30,28.0,31.531022941931457,2.681368099991232,3.531022941931468,100.0,112.27171633322257,True
KL,color,active,4,34,158.0,165.4728021429186,3.8013904000108596,7.472802142918596,-130.0,-126.46897705806855,True
KL,color,active,4,35,46.0,49.864514437760526,2.82843039999716,3.8645144377605334,112.0,119.47280214291857,True
KL,color,active,4,36,198.0,165.17352002964432,4.1610372999857645,-32.82647997035568,-152.0,-148.13548556223947,True
KL,color,active,4,37,318.0,327.4845182723301,3.7348204999871086,9.484518272330092,-120.0,-152.82647997035568,True
KL,color,active,4,38,44.0,39.75286109838356,3.4776088000216987,-4.247138901616438,-86.0,-76.51548172766991,True
KL,color,active,4,39,200.0,196.8937301791981,2.5845758999930695,-3.106269820801913,-156.0,-160.24713890161644,True
KL,color,passive,4,40,336.0,305.46987216740007,2.04541819999622,-30.53012783259993,-136.0,-139.1062698208019,True
KL,color,active,4,41,36.0,31.633069303683158,2.8385993000119925,-4.366930696316842,-60.0,-90.53012783259993,True
KL,color,active,4,42,64.0,47.313722497824216,3.679735999990953,-16.686277502175784,-28.0,-32.36693069631684,True
KL,color,active,4,43,346.0,5.810099427719282,2.3361991000133457,19.810099427719308,78.0,61.31372249782419,True
KL,color,passive,4,44,170.0,188.01981225069815,3.3626383999940117,18.019812250698152,176.0,-164.18990057228072,True
KL,color,active,4,46,52.0,45.59680945122918,2.715990900003817,-6.403190548770823,118.0,136.01981225069812,True
KL,color,active,4,47,224.0,225.28505127758385,3.0612205999786966,1.2850512775838467,-172.0,-178.40319054877082,True
KL,color,active,4,48,348.0,1.6135389328811822,2.4735105000145268,13.61353893288117,-124.0,-122.71494872241615,True
KL,color,passive,4,50,236.0,232.41865006011344,2.477583300002152,-3.5813499398865645,112.0,125.61353893288117,True
KL,color,active,4,51,318.0,321.14662565964665,3.744346499996027,3.146625659646645,-82.0,-85.58134993988656,True
KL,color,passive,4,53,114.0,93.95233658211578,3.211074099992402,-20.047663417884223,-156.0,-152.85337434035335,True
KL,color,active,4,54,90.0,93.93806166061954,4.273184300021967,3.938061660619553,24.0,3.9523365821157768,True
KL,color,active,4,55,242.0,249.04817552013844,3.5447305999987293,7.048175520138443,-152.0,-148.06193833938045,True
KL,color,active,4,56,310.0,286.9661481085362,2.8444759999983944,-23.033851891463826,-68.0,-60.95182447986156,True
KL,color,active,4,59,40.0,44.19684074818975,2.970238400012022,4.196840748189743,-90.0,-113.03385189146383,True
KL,color,passive,4,60,78.0,82.99535275870554,4.027806900005089,4.995352758705536,-38.0,-33.80315925181026,True
KL,color,active,5,2,214.0,237.52880770915152,2.52582739997888,23.528807709151522,,,False
KL,color,active,5,3,162.0,169.21570213243743,3.7758399000158533,7.215702132437428,52.0,75.52880770915152,True
KL,color,passive,5,4,242.0,256.1565086375852,5.258514799992554,14.156508637585205,-80.0,-72.78429786756257,True
KL,color,active,5,6,150.0,163.66728942268404,3.67573160000029,13.667289422684036,92.0,106.1565086375852,True
KL,color,active,5,7,28.0,26.48165126580091,2.759179500018945,-1.518348734199094,122.0,135.667289422684,True
KL,color,active,5,8,172.0,172.5868042912507,3.575638300011633,0.5868042912507008,-144.0,-145.5183487341991,True
KL,color,passive,5,10,6.0,19.13753743409993,3.3935155000071973,13.137537434099926,166.0,166.5868042912507,True
KL,color,active,5,11,56.0,52.05784664988108,4.59308539997437,-3.9421533501189288,-50.0,-36.862462565900074,True
KL,color,passive,5,14,42.0,48.17983011986424,4.075849399989693,6.179830119864249,14.0,10.057846649881071,True
KL,color,passive,5,17,354.0,11.577489206021175,2.2944535999849904,17.5774892060212,48.0,54.17983011986422,True
KL,color,passive,5,18,260.0,271.3322198538696,2.3607149999879766,11.332219853869617,94.0,111.57748920602114,True
KL,color,passive,5,19,240.0,243.35167013227533,4.047681700002158,3.3516701322753306,20.0,31.332219853869617,True
KL,color,active,5,20,190.0,183.47440736753163,3.4232493999879807,-6.525592632468374,50.0,53.35167013227533,True
KL,color,active,5,24,200.0,200.84529364753988,3.6471167000127025,0.8452936475398758,-10.0,-16.525592632468374,True
KL,color,passive,5,25,302.0,292.53325007900423,3.9606633000075817,-9.466749920995767,-102.0,-101.15470635246012,True
KL,color,passive,5,26,168.0,171.9509382983255,6.599664000008488,3.9509382983254966,134.0,124.53325007900423,True
KL,color,active,5,27,58.0,54.26452398513299,6.034231500001624,-3.735476014867004,110.0,113.95093829832547,True
KL,color,active,5,29,144.0,86.19855929549674,6.4835075000009965,-57.801440704503264,-86.0,-89.735476014867,True
KL,color,active,5,30,30.0,36.04257927102928,2.7037885999889113,6.042579271029297,114.0,56.19855929549675,True
KL,color,active,5,31,12.0,24.89265681598872,3.3463263000016923,12.892656815988715,18.0,24.042579271029297,True
KL,color,active,5,32,272.0,269.8115277208701,3.851870400016196,-2.1884722791298827,100.0,112.89265681598874,True
KL,color,active,5,33,124.0,129.83226996242644,4.80237020002096,5.832269962426437,148.0,145.81152772087012,True
KL,color,active,5,36,234.0,235.2268577063413,2.611063899996225,1.226857706341292,-110.0,-104.16773003757356,True
KL,color,active,5,40,284.0,289.8137932454957,3.3058307000028435,5.813793245495674,-50.0,-48.77314229365871,True
KL,color,passive,5,46,260.0,276.604835496754,2.6441883000079542,16.604835496753992,24.0,29.813793245495674,True
KL,color,active,5,48,332.0,330.6422464572087,3.0731422000098974,-1.3577535427912721,-72.0,-55.39516450324601,True
KL,color,active,5,49,254.0,271.12698472547794,4.262984200002393,17.12698472547794,78.0,76.64224645720873,True
KL,color,passive,5,53,144.0,152.9352889940583,3.661661899997398,8.935288994058311,110.0,127.12698472547794,True
KL,color,active,5,55,290.0,282.34484044423846,2.8447882999898866,-7.655159555761543,-146.0,-137.0647110059417,True
KL,color,passive,5,57,148.0,167.53715056506522,3.247622599999886,19.537150565065218,142.0,134.34484044423846,True
KL,color,passive,5,58,98.0,95.88375703644348,3.328705499996886,-2.116242963556516,50.0,69.53715056506522,True
KL,color,active,5,60,98.0,85.68010584634938,5.247321800008649,-12.319894153650637,0.0,-2.116242963556516,True
KL,color,active,6,4,0.0,2.6897703231504724,2.877121399999851,2.6897703231504693,,,False
KL,color,active,6,6,60.0,56.13630943118173,2.325906699988991,-3.8636905688182708,-60.0,-57.31022967684953,True
KL,color,active,6,8,92.0,85.49138234996136,3.29322379999212,-6.508617650038644,-32.0,-35.86369056881827,True
KL,color,passive,6,11,152.0,112.89835336909675,3.4425897999890367,-39.10164663090325,-60.0,-66.50861765003864,True
KL,color,active,6,17,178.0,185.0306751409608,3.642592800024431,7.0306751409607955,-26.0,-65.10164663090325,True
KL,color,active,6,21,88.0,85.69553103949202,4.260695700010729,-2.304468960507961,90.0,97.0306751409608,True
KL,color,passive,6,24,170.0,18.43494882292201,1.6351925000199117,-151.56505117707798,-82.0,-84.30446896050798,True
KL,color,active,6,25,42.0,50.42059528376237,2.767427200014936,8.420595283762367,128.0,-23.565051177077976,True
KL,color,passive,6,26,254.0,210.4451003959697,2.131625799986068,-43.55489960403031,148.0,156.4205952837624,True
KL,color,passive,6,27,244.0,224.7430699754965,3.5459777000060058,-19.256930024503504,10.0,-33.55489960403031,True
KL,color,passive,6,28,52.0,54.99241452621624,2.7649030999746174,2.992414526216237,-168.0,172.7430699754965,True
KL,color,passive,6,29,194.0,200.24368814541407,2.794018500018865,6.243688145414069,-142.0,-139.00758547378376,True
KL,color,passive,6,32,120.0,96.1701750950296,3.3046027999953367,-23.829824904970394,74.0,80.24368814541407,True
KL,color,passive,6,33,190.0,186.1155035662854,6.164338400005363,-3.884496433714588,-70.0,-93.8298249049704,True
KL,color,active,6,34,188.0,179.41136544145843,3.850333300011698,-8.588634558541571,2.0,-1.8844964337145882,True
KL,color,active,6,35,8.0,4.630046410797663,4.0617947000137065,-3.369953589202339,-180.0,171.41136544145843,True
KL,color,active,6,36,202.0,197.00582873368057,3.1612179999938235,-4.994171266319427,166.0,162.63004641079766,True
KL,color,passive,6,37,156.0,184.07112619365935,3.144169300008798,28.071126193659353,46.0,41.00582873368057,True
KL,color,passive,6,38,288.0,290.4675575995686,3.9025104999900577,2.467557599568579,-132.0,-103.92887380634065,True
KL,color,active,6,39,144.0,144.504358722503,3.4184072999923956,0.5043587225030137,144.0,146.46755759956858,True
KL,color,passive,6,41,26.0,31.504266719204196,2.396097999997437,5.504266719204196,118.0,118.50435872250301,True
KL,color,active,6,42,2.0,9.260221531171478,2.48938340001132,7.2602215311714815,24.0,29.504266719204196,True
KL,color,active,6,46,212.0,210.73548770192008,2.839805099996738,-1.2645122980799215,150.0,157.2602215311715,True
KL,color,passive,6,49,342.0,335.6546043761199,3.0195076999953017,-6.345395623880108,-130.0,-131.26451229807992,True
KL,color,passive,6,50,2.0,12.17513454990505,3.4262171000009403,10.175134549905039,-20.0,-26.34539562388011,True
KL,color,active,6,52,20.0,25.769327624338715,3.5442523999954574,5.7693276243387,-18.0,-7.824865450094961,True
KL,color,passive,6,54,206.0,212.85572195043295,3.260745300009148,6.855721950432951,174.0,179.7693276243387,True
KL,color,active,6,57,318.0,301.1593045083444,3.6942851999774575,-16.840695491655595,-112.0,-105.14427804956705,True
KL,color,active,6,59,238.0,237.6578197542188,3.5175605000113137,-0.34218024578120776,80.0,63.159304508344405,True
KL,color,passive,6,60,58.0,56.565944083515305,5.810666800010949,-1.434055916484681,-180.0,179.6578197542188,True
KL,color,passive,7,1,0.0,14.765423109928552,2.198371499980567,14.765423109928548,,,False
KL,color,active,7,2,236.0,237.4678223362132,3.9191606000240427,1.467822336213203,124.0,138.76542310992852,True
KL,color,passive,7,4,140.0,159.77514056883192,3.545068700011143,19.775140568831915,96.0,97.4678223362132,True
KL,color,active,7,9,134.0,93.42558941386628,4.54394209999009,-40.57441058613372,6.0,25.775140568831915,True
KL,color,passive,7,12,86.0,77.78849162352402,2.6121543000044767,-8.21150837647599,48.0,7.425589413866277,True
KL,color,passive,7,13,134.0,89.80174549880081,4.893892699998105,-44.19825450119919,-48.0,-56.211508376475976,True
KL,color,active,7,16,16.0,26.56505117707799,3.211550099978922,10.565051177077976,118.0,73.80174549880081,True
KL,color,passive,7,18,340.0,12.667059925007868,5.744150599988643,32.66705992500789,36.0,46.565051177077976,True
KL,color,active,7,19,226.0,239.1053577643352,2.6170012000075076,13.105357764335196,114.0,146.66705992500783,True
KL,color,passive,7,25,94.0,96.22945400302105,3.044079100014642,2.229454003021033,132.0,145.10535776433517,True
KL,color,passive,7,27,246.0,225.85086486473028,6.98621600001934,-20.149135135269717,-152.0,-149.77054599697897,True
KL,color,passive,7,32,168.0,191.8453914595848,3.5442513000161853,23.84539145958479,78.0,57.85086486473028,True
KL,color,passive,7,33,54.0,98.62885606302493,3.7677726999972947,44.62885606302493,114.0,137.8453914595848,True
KL,color,active,7,34,248.0,227.22777426503745,5.5701968999928795,-20.772225734962547,166.0,-149.37114393697507,True
KL,color,passive,7,35,348.0,359.21785364594336,2.989882400026545,11.217853645943364,-100.0,-120.77222573496255,True
KL,color,active,7,36,226.0,234.9917578937454,2.5909339000063483,8.991757893745387,122.0,133.21785364594336,True
KL,color,passive,7,37,290.0,284.31482691040486,2.5440882999982932,-5.685173089595139,-64.0,-55.00824210625461,True
KL,color,active,7,39,276.0,275.0306751409608,2.917132099973969,-0.9693248590392045,14.0,8.31482691040486,True
KL,color,active,7,40,116.0,92.58451344596558,2.96087599999737,-23.41548655403443,160.0,159.0306751409608,True
KL,color,active,7,44,350.0,355.5730283525206,2.4277912999968976,5.573028352520623,126.0,102.58451344596557,True
KL,color,passive,7,45,32.0,44.46454101443547,1.746450399979949,12.464541014435468,-42.0,-36.42697164747938,True
KL,color,active,7,47,104.0,93.49934121258882,2.7425159999984317,-10.500658787411169,-72.0,-59.53545898556453,True
KL,color,passive,7,48,196.0,201.83643135210815,3.6783635999890976,5.83643135210815,-92.0,-102.50065878741118,True
KL,color,active,7,50,310.0,296.8258799345309,3.0503314999805298,-13.174120065469083,-114.0,-108.16356864789185,True
KL,color,active,7,51,12.0,16.537645785767953,3.7346914000227116,4.53764578576795,-62.0,-75.17412006546908,True
KL,color,active,7,52,30.0,25.57574044111491,2.647229000023799,-4.4242595588850975,-18.0,-13.46235421423205,True
KL,color,passive,7,54,198.0,202.88233367301248,2.393640800000867,4.882333673012482,-168.0,-172.4242595588851,True
KL,color,passive,7,55,62.0,64.09825672226366,5.06105769998976,2.0982567222636703,136.0,140.88233367301245,True
KL,color,active,7,56,182.0,175.10090754621226,4.0014505999861285,-6.899092453787745,-120.0,-117.90174327773634,True
KL,color,active,7,57,230.0,223.7694922851761,2.6833225000009406,-6.2305077148238865,-48.0,-54.899092453787745,True
KL,color,passive,7,59,352.0,339.7654507702581,2.4108258000051137,-12.234549229741901,-122.0,-128.2305077148239,True
KL,color,active,8,1,44.0,50.57863625539338,6.162918899994111,6.578636255393377,,,False
KL,color,active,8,4,78.0,81.40877456777235,2.4114369000017177,3.4087745677723547,-34.0,-27.421363744606623,True
KL,color,active,8,5,34.0,28.08423991610105,2.5844885999977123,-5.9157600838989595,44.0,47.408774567772355,True
KL,color,passive,8,7,262.0,264.4967944315114,4.1138832999859005,2.4967944315113755,132.0,126.08423991610107,True
KL,color,passive,8,8,6.0,11.839034130753344,3.432823899987852,5.839034130753333,-104.0,-101.50320556848862,True
KL,color,passive,8,10,356.0,7.891702428235704,2.771708099987336,11.891702428235703,10.0,15.839034130753362,True
KL,color,passive,8,12,32.0,34.011348903506025,2.4527696000004653,2.0113489035060184,-36.0,-24.108297571764297,True
KL,color,active,8,14,336.0,331.97276144922245,4.316878999989967,-4.027238550777554,56.0,58.01134890350602,True
KL,color,passive,8,15,270.0,273.58810667388923,2.0514363999827765,3.5881066738892287,66.0,61.972761449222446,True
KL,color,active,8,16,344.0,311.18592516570965,3.7780228999909014,-32.81407483429035,-74.0,-70.41189332611077,True
KL,color,passive,8,19,28.0,22.824439675019647,3.1449850000208244,-5.175560324980353,-44.0,-76.81407483429035,True
KL,color,passive,8,20,110.0,24.41333170502512,3.366804299992509,-85.58666829497488,-82.0,-87.17556032498035,True
KL,color,active,8,23,70.0,70.65567072787886,4.886366199993972,0.6556707278788565,40.0,-45.586668294974885,True
KL,color,passive,8,27,312.0,302.1839978063413,3.760530800005654,-9.816002193658676,118.0,118.65567072787883,True
KL,color,passive,8,28,328.0,323.9574207289707,2.8521942000079434,-4.042579271029297,-16.0,-25.816002193658676,True
KL,color,active,8,33,282.0,277.58183411785177,3.2617361999873538,-4.41816588214823,46.0,41.9574207289707,True
KL,color,passive,8,34,54.0,52.10902534191732,3.480518899974413,-1.8909746580826834,-132.0,-136.41816588214823,True
KL,color,active,8,35,166.0,144.55710422167067,4.4772698000015225,-21.44289577832933,-112.0,-113.89097465808268,True
KL,color,active,8,37,320.0,326.58512622485506,2.7159450000035577,6.58512622485506,-154.0,-175.44289577832933,True
KL,color,passive,8,41,114.0,104.5271978570814,2.578529599995818,-9.472802142918596,-154.0,-147.41487377514494,True
KL,color,active,8,45,322.0,326.09372301155787,3.949576800019713,4.09372301155787,152.0,142.52719785708143,True
KL,color,active,8,46,6.0,10.512627169921346,3.6089928000001237,4.512627169921359,-44.0,-39.90627698844213,True
KL,color,active,8,48,208.0,206.565051177078,3.395184499997413,-1.4349488229219958,158.0,162.51262716992136,True
KL,color,passive,8,49,350.0,12.030596096537868,3.077439700020477,22.030596096537863,-142.0,-143.434948822922,True
KL,color,active,8,51,328.0,328.8713165212812,3.46075299999211,0.8713165212811873,22.0,44.03059609653786,True
KL,color,active,8,52,224.0,240.73613540145897,3.1671015999745578,16.736135401458966,104.0,104.87131652128119,True
KL,color,passive,8,53,272.0,276.66413729241253,2.454264100000728,4.6641372924125335,-48.0,-31.263864598541034,True
KL,color,passive,8,54,184.0,195.75117366345305,3.8186566999938805,11.751173663453045,88.0,92.66413729241253,True
KL,color,active,8,55,118.0,126.13275173622394,5.546430800021881,8.132751736223952,66.0,77.75117366345307,True
KL,color,active,8,56,80.0,59.30027744918559,4.061691100010648,-20.699722550814414,38.0,46.13275173622395,True
KL,color,active,8,57,4.0,20.897765498838854,3.2777962000109255,16.89776549883885,76.0,55.300277449185586,True
KL,color,passive,8,58,188.0,181.6135389328812,2.8324395999952685,-6.386461067118802,176.0,-167.10223450116115,True
KL,color,active,8,59,342.0,328.0358367700663,4.083043000020552,-13.964163229933718,-154.0,-160.3864610671188,True
KL,orientation,passive,1,1,22.512104064641782,48.286101979075305,1.833127100020704,25.773997914433522,,,False
KL,orientation,active,1,2,91.48617459023386,110.69545073406327,3.846262500010255,19.209276143829413,-68.97407052559208,-43.200072611158554,True
KL,orientation,active,1,3,20.387347416837585,53.24632081446853,3.659642199985683,32.85897339763095,71.09882717339627,-89.69189668277431,True
KL,orientation,passive,1,6,136.3967691374733,149.32271997820357,3.7673952000041595,12.925950840730252,63.990578279364286,-83.15044832300478,True
KL,orientation,passive,1,9,22.61558184924841,33.690067525979785,5.434630500007188,11.07448567673137,-66.21881271177512,-53.29286187104486,True
KL,orientation,passive,1,12,39.89828314714196,74.05460409907715,5.983561099972576,34.156320951935186,-17.282701297893553,-6.208215621162168,True
KL,orientation,active,1,16,48.91794735523158,71.02959219151344,4.041756299993722,22.11164483628187,-9.019664208089623,25.136656743845577,True
KL,orientation,passive,1,18,20.297163391952644,49.085616779974885,3.3008828000164954,28.788453388022248,28.62078396327894,50.73242879956081,True
KL,orientation,passive,1,22,116.92804908740128,152.1403493047577,4.500622799998382,35.21230021735643,83.36911430455137,-67.84243230742639,True
KL,orientation,passive,1,23,147.3900099169772,171.86989764584402,1.968243099981919,24.479887728866828,-30.461960829575915,4.750339387780514,True
KL,orientation,passive,1,24,175.86251977487248,165.96375653207352,6.883017000014661,-9.898763242798964,-28.47250985789529,-3.9926221290284616,True
KL,orientation,active,1,25,6.277560900517846,43.264295411071615,3.775043200002983,36.98673451055376,-10.41504112564536,-20.313804368444323,True
KL,orientation,active,1,26,157.15853346189516,166.13897243697886,3.208530100004282,8.9804389750837,29.11902743862268,66.10576194917644,True
KL,orientation,active,1,28,79.00627684327604,86.98721249581666,5.491354199999478,7.980935652540623,78.1522566186191,87.1326955937028,True
KL,orientation,passive,1,29,23.417283223668232,36.86989764584402,4.0348049000022,13.452614422175785,55.588993619607805,63.56992927214844,True
KL,orientation,active,1,30,119.15229312975244,154.91640599380906,3.491760000004433,35.76411286405663,84.2649900939158,-82.28239548390842,True
KL,orientation,active,1,31,159.73326966987662,171.67434966957316,3.942462799983332,11.94107999969654,-40.58097654012418,-4.816863676067555,True
KL,orientation,passive,1,32,71.94039776314001,85.5787105785694,4.250304399989545,13.638312815429387,87.7928719067366,-80.26604809356684,True
KL,orientation,active,1,34,108.08924094145011,129.42479942996206,4.92511939999531,21.33555848851195,-36.1488431783101,-22.510530362880715,True
KL,orientation,active,1,35,6.337629151622329,48.366460663429805,3.9250305999885313,42.02883151180748,-78.24838821017221,-56.91282972166027,True
KL,orientation,active,1,36,141.5085231873586,163.6104596659652,3.208500400010962,22.101936478606603,44.82910596426373,86.85793747607119,True
KL,orientation,active,1,38,61.47166765627733,68.19859051364818,3.5582921000022907,6.726922857370852,80.03685553108127,-77.86120799031212,True
KL,orientation,active,1,40,20.893237559373656,50.41186915231703,3.892149600025732,29.51863159294338,40.57843009690367,47.305352954274525,True
KL,orientation,passive,1,43,103.40013816833807,116.23603883236363,5.23369389999425,12.835900664025559,-82.50690060896441,-52.98826901602104,True
KL,orientation,active,1,45,149.11149649795306,151.92751306414704,4.14509169998928,2.81601656619398,-45.71135832961498,-32.87545766558942,True
KL,orientation,active,1,49,166.3135598926297,174.28940686250036,3.425224300008267,7.975846969870645,-17.202063394676657,-14.386046828482677,True
KL,orientation,passive,1,54,62.80221181699206,86.60698893091126,3.000877299986314,23.804777113919187,-76.48865192436236,-68.51280495449171,True
KL,orientation,passive,1,56,173.5493446787787,5.998199511090576,2.1837019000086,12.448854832311866,69.25286713821336,-86.94235574786745,True
KL,orientation,active,1,58,36.2334879993405,35.83765295427829,5.591552600002615,-0.39583504506219924,-42.68414332056179,-30.23528848824992,True
KL,orientation,passive,2,1,4.571869681697187,34.753531529189964,4.050788199994827,30.181661847492776,,,False
KL,orientation,passive,2,4,30.45342225133504,56.309932474020215,3.4514743000036106,25.856510222685174,-25.881552569637847,4.300109277854915,True
KL,orientation,passive,2,6,56.65810005843338,52.85331330197822,3.0682253999983686,-3.804786756455158,-26.204677807098335,-0.34816758441316153,True
KL,orientation,passive,2,7,167.70011112522687,162.08749061403674,2.21755900001142,-5.61262051119013,68.95798893320651,65.15320217675134,True
KL,orientation,active,2,9,36.42791809238423,50.931526924919766,3.9916584999883753,14.503608832535534,-48.72780696715736,-54.34042747834749,True
KL,orientation,passive,2,10,134.540153639823,4.32506043473846,3.3003948999976274,49.78490679491546,81.88776445256124,-83.60862671490322,True
KL,orientation,passive,2,14,55.77200568635509,40.0158850174213,3.81801499999699,-15.75612066893379,78.76814795346792,-51.446945251616626,True
KL,orientation,passive,2,19,127.1468647403272,136.97493401088198,3.9671868000002632,9.828069270554778,-71.37485905397212,-87.1309797229059,True
KL,orientation,passive,2,20,108.92495383835214,139.28915332881903,4.466957099997671,30.364199490466888,18.221910901975065,28.049980172529843,True
KL,orientation,active,2,22,9.348099797959224,62.13299615034313,4.7433330999920145,52.784896352383896,-80.4231459596071,-50.05894646914021,True
KL,orientation,active,2,24,38.01675444926127,65.82089285331082,3.8357865999860223,27.804138404049553,-28.66865465130205,24.11624170108186,True
KL,orientation,passive,2,29,108.02301821907918,145.64566334496033,3.2173991999879945,37.62264512588115,-70.0062637698179,-42.20212536576835,True
KL,orientation,passive,2,30,164.3054320241815,163.70120361846267,3.000775399995973,-0.6042284057188283,-56.28241380510232,-18.659768679221173,True
KL,orientation,passive,2,31,113.18236893364896,139.11222884471846,4.450777099991683,25.9298599110695,51.123063090532526,50.518834684813726,True
KL,orientation,passive,2,34,93.40859260717984,120.19497751478944,2.283987200004276,26.7863849076096,19.773776326469118,45.7036362375386,True
KL,orientation,passive,2,38,146.80670265091138,163.85893470308798,3.267792200000031,17.052232052176606,-53.398110043731535,-26.611725136121933,True
KL,orientation,passive,2,39,56.860820573452266,71.27905132528292,2.5837923999936265,14.418230751830663,89.94588207745912,-73.00188587036428,True
KL,orientation,active,2,40,147.32574266884745,167.14190982700183,3.841429899999639,19.81616715815437,89.5350779046048,-76.04669134356453,True
KL,orientation,passive,2,41,148.62870872922934,161.1468412355809,2.3184160999951473,12.518132506351549,-1.3029660603818911,18.51320109777248,True
KL,orientation,active,2,42,169.50798366621268,0.0,3.0416529999927207,10.49201633378732,-20.879274936983336,-8.361142430631787,True
KL,orientation,passive,2,44,33.37884162561376,47.91083782616775,2.967127499985736,14.53199620055399,-43.870857959401064,-33.37884162561376,True
KL,orientation,passive,2,45,18.24704467560133,22.833654177917545,2.233638100005919,4.5866095023162075,15.13179695001243,29.66379315056642,True
KL,orientation,passive,2,47,131.3188496508312,145.90502204523446,2.000232499995036,14.586172394403263,66.92819502477013,71.51480452708634,True
KL,orientation,active,2,49,61.54144076470023,83.50647468746075,4.175670199998422,21.96503392276051,69.77740888613096,84.36358128053422,True
KL,orientation,active,2,51,29.245947568098607,35.83765295427829,5.208137199981138,6.591705386179683,32.295493196601626,54.26052711936214,True
KL,orientation,active,2,53,146.6909148212945,146.08256946302964,3.1922287999766468,-0.6083453582648701,62.5550327468041,69.14673813298378,True
KL,orientation,passive,2,56,160.21862634327144,175.1611011990767,2.2843078000005335,14.942474855805273,-13.527711521976926,-14.136056880241796,True
KL,orientation,active,2,57,129.6820246633538,143.82037955202105,4.87499489999027,14.138354888667266,30.536601679917652,45.479076535722925,True
KL,orientation,active,2,59,169.1798682700118,1.3971810272963765,2.942040800000541,12.21731275728456,-39.49784360665802,-25.359488717990757,True
KL,orientation,passive,2,60,15.7516082386441,42.51627692937603,2.8511137000168674,26.764668690731938,-26.5717399686323,-14.354427211347726,True
KL,orientation,passive,3,5,40.3428945166635,45.0,5.767374200018821,4.657105483336494,,,False
