thisN,thisTrialN,thisRepN,Rest_wait.keys,Rest_wait.rt,Rest_wait.duration,practiceLoop.thisRepN,practiceLoop.thisTrialN,practiceLoop.thisN,practiceLoop.thisIndex,mainLoop.thisRepN,mainLoop.thisTrialN,mainLoop.thisN,mainLoop.thisIndex,thisRow.t,notes,INIT.started,INIT.stopped,Instr.started,key_instruct.started,Instr.stopped,key_instruct.keys,key_instruct.rt,key_instruct.duration,ori_stim,col_stim_hue,cueType,actualTask,Block_index,trial_in_block,Fixation.started,fix_2.started,fix_2.stopped,Fixation.stopped,encoding.started,grating.started,encoding.stopped,Blank.started,Blank.stopped,Cue.started,Cue.stopped,ITI_2.started,ITI_2.stopped,Resp_ChoiceRouter.started,Resp_ChoiceRouter.stopped,resp_any.started,resp_any.stopped,task,ori_angle,col_resp_hue,col_error,rt_reproduction,resp_oriation.started,resp_oriation.stopped,resp_color.started,resp_color.stopped,slidertest.started,slidertest.stopped,confidence,rt_confidence,grating.stopped,expstart.started,text_5.started,key_resp.started,expstart.stopped,key_resp.keys,key_resp.rt,key_resp.duration,Fix2.started,text_6.started,text_6.stopped,Fix2.stopped,blockbreak.started,blockbreak.stopped,mainLoop.Rest_wait.keys,text_4.started,Rest_wait.started,mainLoop.Rest_wait.rt,mainLoop.Rest_wait.duration,participant,session,Gender,Age,date,expName,expVersion,psychopyVersion,frameRate,expStart,
,,,,,,,,,,,,,,,,0.03269180000097549,0.03274450000026263,,,,,,,,,,,,,,,,,,,,,,,,,,,,,,,,,,,,,,,,,,,,,,,,,,,,,,,,,,,,,,813125,001,male,23,2025-12-14_21h18.13.669,RSD11,,2025.2.3,60,2025-12-14 21h18.14.476515 +0100,
,,,,,,,,,,,,,,,,,,0.03276960000039253,1.0391718999999284,2.543375900000683,space,1.4948488000009093,None,,,,,,,,,,,,,,,,,,,,,,,,,,,,,,,,,,,,,,,,,,,,,,,,,,,,,,,,813125,001,male,23,2025-12-14_21h18.13.669,RSD11,,2025.2.3,60,2025-12-14 21h18.14.476515 +0100,
0,0,0,,,,0,0,0,0,,,,,2.5553546999999526,,,,,,,,,,95.33671483455421,116.0,A,color,0,1,2.543578599999819,2.5553546999999526,3.0570698999999877,3.038988199999949,3.0478461000002426,3.0570698999999877,3.655460600000879,3.655497900001137,4.155757000000449,4.158301499999652,4.655202199999621,8.882974699999977,9.872105800001009,5.6552386000003025,5.655247300001065,5.9949391999998625,8.88265710000087,color,nan,118.45028177877795,2.450281778777935,1.4175691999989795,8.882788900000378,8.882814700000381,8.882856399999582,8.882901500001026,9.872736400000576,14.03730750000068,6.0,4.151439499999469,,,,,,,,,,,,,,,,,,,,813125,001,male,23,2025-12-14_21h18.13.669,RSD11,,2025.2.3,60,2025-12-14 21h18.14.476515 +0100,
1,0,1,,,,1,0,1,0,,,,,14.053545200000372,,,,,,,,,,41.28120799604269,106.0,A,orientation,0,2,14.03751850000117,14.053545200000372,14.553597600001012,14.536729499999637,14.537480900000446,14.553597600001012,15.13691149999977,15.136934100000872,15.637103400000342,15.637127899999541,16.137187800000902,22.329536200000803,23.320085299999846,17.137115900000936,17.13712359999954,17.46611529999973,22.32924009999988,orientation,-135.0,nan,nan,nan,22.32942920000096,22.329454599999735,22.329491300000882,22.329508599999826,23.320727100001022,25.069940999999744,5.0,1.7350549000002502,15.153221900000062,,,,,,,,,,,,,,,,,,,813125,001,male,23,2025-12-14_21h18.13.669,RSD11,,2025.2.3,60,2025-12-14 21h18.14.476515 +0100,
2,0,2,,,,2,0,2,0,,,,,25.085820100001,,,,,,,,,,21.748614449458582,74.0,A,color,0,3,25.070200500000283,25.085820100001,25.585862899999483,25.569376700001158,25.570362100001148,25.585862899999483,26.169232600001124,26.16925600000104,26.66968520000046,26.669713999999658,27.16916719999972,31.912423800000397,32.901962699999785,28.169347299999572,28.1693594999997,28.587354700001015,31.912041699999463,color,nan,60.06341459362279,-13.936585406377219,2.3343896999995195,31.912244799999826,31.912276200000633,31.912327500000174,31.912352000001192,32.902638300000035,34.635364600000685,5.0,1.7192940000004455,26.185799900000347,,,,,,,,,,,,,,,,,,,813125,001,male,23,2025-12-14_21h18.13.669,RSD11,,2025.2.3,60,2025-12-14 21h18.14.476515 +0100,
3,0,3,,,,3,0,3,0,,,,,34.65168059999996,,,,,,,,,,69.9786997743792,42.0,C,color,0,4,34.63559089999944,34.65168059999996,35.151510400000916,35.13487449999957,35.1358266999996,35.151510400000916,35.7341720000004,35.73419079999985,36.25168870000016,36.25376300000062,36.75134430000071,39.89514919999965,40.88396719999946,37.75058480000007,37.7505927000002,38.073006700000406,38.07304130000011,NA,nan,37.40535663140856,nan,nan,38.07305989999986,38.073077200000625,38.24005720000059,39.89505140000074,40.88471990000107,43.06742850000046,4.0,2.16995930000121,35.752234400000816,,,,,,,,,,,,,,,,,,,813125,001,male,23,2025-12-14_21h18.13.669,RSD11,,2025.2.3,60,2025-12-14 21h18.14.476515 +0100,
4,0,4,,,,4,0,4,0,,,,,43.08362660000057,,,,,,,,,,37.08174063657321,268.0,C,color,0,5,43.06782729999941,43.08362660000057,43.583388700000796,43.567480600000636,43.56819709999945,43.583388700000796,44.166881099999955,44.1669122000003,44.666633799999545,44.6666710999998,45.18363909999971,49.77714809999998,50.78251860000091,46.18357289999949,46.18358369999987,46.50200530000075,46.50203710000096,NA,nan,268.5627730036781,nan,nan,46.50205509999978,46.50207340000088,46.66430349999973,49.77704799999992,50.78330880000067,52.83308399999987,5.0,2.0364064000004873,44.183243100000254,,,,,,,,,,,,,,,,,,,813125,001,male,23,2025-12-14_21h18.13.669,RSD11,,2025.2.3,60,2025-12-14 21h18.14.476515 +0100,
5,0,5,,,,5,0,5,0,,,,,52.849509699999544,,,,,,,,,,64.14811085946043,232.0,A,orientation,0,6,52.83334070000092,52.849509699999544,53.34956410000086,53.33284910000111,53.33372369999961,53.34956410000086,53.932923300000766,53.93294280000009,54.43222670000068,54.43312230000083,54.93245759999991,59.94138550000025,60.931528799999796,55.9324059999999,55.932413700000325,56.32975439999973,59.94109500000013,color,nan,238.01497776458928,6.0149777645892755,1.1168031000015617,59.94125309999981,59.94127630000003,59.941314699999566,59.94133289999991,60.932260400000814,62.264619600000515,5.0,1.3162372999995569,53.949219500000254,,,,,,,,,,,,,,,,,,,813125,001,male,23,2025-12-14_21h18.13.669,RSD11,,2025.2.3,60,2025-12-14 21h18.14.476515 +0100,
6,0,6,,,,6,0,6,0,,,,,62.28091630000017,,,,,,,,,,119.11206245063141,164.0,C,color,0,7,62.26487160000033,62.28091630000017,62.78073480000057,62.76406560000032,62.76496580000094,62.78073480000057,63.36496210000041,63.36499370000092,63.86454290000074,63.86525780000011,64.36445230000027,68.59172930000022,69.58051410000007,65.3639647,65.36397200000101,65.68380070000057,65.68383370000083,NA,nan,184.05673786129486,nan,nan,65.68385190000117,65.68386930000088,65.84911260000081,68.59164790000068,69.58115990000078,70.68033370000012,2.0,1.0863663000000088,,,,,,,,,,,,,,,,,,,,813125,001,male,23,2025-12-14_21h18.13.669,RSD11,,2025.2.3,60,2025-12-14 21h18.14.476515 +0100,
7,0,7,,,,7,0,7,0,,,,,70.69660230000045,,,,,,,,,,67.08788577189,348.0,A,color,0,8,70.6808218999995,70.69660230000045,71.19664449999982,71.1802545999999,71.18113730000005,71.19664449999982,71.77969920000032,71.77971869999965,72.29709970000113,72.29788080000071,72.79685849999987,78.4419224000012,79.42952250000053,73.79621679999946,73.79622500000005,74.12515560000065,78.44168569999965,orientation,-123.32121567193958,nan,nan,nan,78.44181070000013,78.44184669999959,78.44188380000014,78.44190220000019,79.43036969999957,80.39584420000028,3.0,0.9526654999990569,71.7965067999994,,,,,,,,,,,,,,,,,,,813125,001,male,23,2025-12-14_21h18.13.669,RSD11,,2025.2.3,60,2025-12-14 21h18.14.476515 +0100,
8,0,8,,,,8,0,8,0,,,,,80.41169389999959,,,,,,,,,,104.05172982704016,336.0,C,color,0,9,80.39617089999956,80.41169389999959,80.91297080000004,80.89532169999984,80.89609130000099,80.91297080000004,81.4957875,81.49580620000052,81.99550610000006,81.99625279999964,82.49572810000063,88.07167219999974,89.06215669999983,83.49524490000113,83.49525300000096,83.82867149999947,83.82870469999943,NA,nan,304.2220464773913,nan,nan,83.82872390000011,83.82874160000028,84.08347690000119,88.07153389999985,89.0628054000008,90.89521299999979,3.0,1.816093199999159,81.51239050000004,,,,,,,,,,,,,,,,,,,813125,001,male,23,2025-12-14_21h18.13.669,RSD11,,2025.2.3,60,2025-12-14 21h18.14.476515 +0100,
9,0,9,,,,9,0,9,0,,,,,90.91138390000015,,,,,,,,,,80.30211160903221,308.0,O,orientation,0,10,90.89546449999943,90.91138390000015,91.41145069999948,91.3947334000004,91.39543670000057,91.41145069999948,91.99449769999956,91.99452380000002,92.49482030000036,92.49679260000084,92.99431430000004,97.37910890000057,98.39354830000048,94.01148810000086,94.01149650000116,94.33725349999986,94.33728530000008,orientation,-90.61276572226402,nan,nan,,94.33741519999967,97.37902890000078,97.37906529999964,97.37908640000023,98.39415490000101,99.64444940000067,5.0,1.235186199999589,92.01085969999986,,,,,,,,,,,,,,,,,,,813125,001,male,23,2025-12-14_21h18.13.669,RSD11,,2025.2.3,60,2025-12-14 21h18.14.476515 +0100,
10,0,10,,,,10,0,10,0,,,,,99.66057860000001,,,,,,,,,,144.0722724288774,190.0,C,color,0,11,99.6448601000011,99.66057860000001,100.16026590000001,100.14344850000089,100.1441218,100.16026590000001,100.74330089999967,100.74332870000035,101.2600536000009,101.26101190000009,101.75980030000028,105.55376799999976,106.54277660000116,102.76018199999999,102.76019059999999,103.09548870000071,103.09552350000013,NA,nan,193.98685056678877,nan,nan,103.09554299999945,103.09556300000077,103.26473749999968,105.55367730000034,106.54361220000101,107.50971580000078,5.0,0.9526547000004939,100.75987050000003,,,,,,,,,,,,,,,,,,,813125,001,male,23,2025-12-14_21h18.13.669,RSD11,,2025.2.3,60,2025-12-14 21h18.14.476515 +0100,
11,0,11,,,,11,0,11,0,,,,,107.52588790000118,,,,,,,,,,176.2735464463325,326.0,A,orientation,0,12,107.51035860000047,107.52588790000118,108.02653810000083,108.00965200000064,108.01050039999973,108.02653810000083,108.60925320000024,108.60927500000071,109.10913110000001,109.11009000000013,109.60925060000045,119.06826499999988,120.0584600000002,110.60850279999977,110.60851030000049,110.92619089999971,119.0680038999999,orientation,-176.15856764136194,nan,nan,nan,119.06816120000076,119.06818610000118,119.06822319999992,119.06824290000077,120.05908930000078,120.95816379999997,3.0,0.8830309999993915,108.62586370000099,,,,,,,,,,,,,,,,,,,813125,001,male,23,2025-12-14_21h18.13.669,RSD11,,2025.2.3,60,2025-12-14 21h18.14.476515 +0100,
12,0,12,,,,12,0,12,0,,,,,120.9742352000012,,,,,,,,,,144.87463811762106,216.0,C,color,0,13,120.9584188000008,120.9742352000012,121.47392659999969,121.45737480000025,121.45867910000015,121.47392659999969,122.05748630000016,122.05750690000059,122.55699230000027,122.55788500000017,123.0569816999996,126.88436510000065,127.87341469999956,124.07391559999996,124.07392340000115,124.48328369999945,124.48331570000119,NA,nan,220.4898243974874,nan,nan,124.48333459999958,124.48335299999962,124.6494705999994,126.88425730000017,127.87396420000005,129.60712609999973,3.0,1.7216521999998804,122.07374560000062,,,,,,,,,,,,,,,,,,,813125,001,male,23,2025-12-14_21h18.13.669,RSD11,,2025.2.3,60,2025-12-14 21h18.14.476515 +0100,
13,0,13,,,,13,0,13,0,,,,,129.62316629999987,,,,,,,,,,61.07394402457907,262.0,O,orientation,0,14,129.60736519999955,129.62316629999987,130.12340080000104,130.10665490000065,130.10727740000038,130.12340080000104,130.70626249999987,130.70628320000105,131.20680970000103,131.20755409999947,131.70627330000025,137.95720729999994,138.9556561999998,132.70651630000066,132.7065244000005,133.02159399999982,133.0216306000002,orientation,-105.25511870305779,nan,nan,,133.02176979999967,137.95712850000018,137.95716060000086,137.95718320000015,138.9562704,139.83925810000073,2.0,0.8716972000001988,130.72276720000082,,,,,,,,,,,,,,,,,,,813125,001,male,23,2025-12-14_21h18.13.669,RSD11,,2025.2.3,60,2025-12-14 21h18.14.476515 +0100,
14,0,14,,,,14,0,14,0,,,,,139.8553410000004,,,,,,,,,,169.5493887846098,256.0,O,orientation,0,15,139.83967529999973,139.8553410000004,140.3555854999995,140.33861930000057,140.33991779999997,140.3555854999995,140.9383928999996,140.93841460000112,141.45575570000074,141.45581370000036,141.95519650000097,150.20679910000035,151.20414619999974,142.95552529999986,142.95553330000075,143.2795188,143.27955060000022,orientation,-150.67626123827475,nan,nan,,143.27966899999956,150.2067134000008,150.2067516999996,150.20677699999942,151.20485159999953,154.88695870000083,2.0,3.668884299999263,140.95495330000085,,,,,,,,,,,,,,,,,,,813125,001,male,23,2025-12-14_21h18.13.669,RSD11,,2025.2.3,60,2025-12-14 21h18.14.476515 +0100,
15,0,15,,,,15,0,15,0,,,,,154.902914100001,,,,,,,,,,79.09584026302738,138.0,A,color,0,16,154.88725610000074,154.902914100001,155.4031883000007,155.38641980000102,155.38707860000068,155.4031883000007,155.98630129999947,155.98632890000044,156.4866495999995,156.48754180000105,156.98624689999997,164.0779524999998,165.0692411,157.98627490000035,157.98628250000002,158.3158715999998,164.07766339999944,orientation,-5.330908100584112,nan,nan,nan,164.07783310000013,164.07785990000048,164.07790490000116,164.0779323000006,165.06988439999986,168.7356617000005,3.0,3.6536300999996456,156.00268270000015,,,,,,,,,,,,,,,,,,,813125,001,male,23,2025-12-14_21h18.13.669,RSD11,,2025.2.3,60,2025-12-14 21h18.14.476515 +0100,
16,0,16,,,,16,0,16,0,,,,,168.7516764000011,,,,,,,,,,76.40707765871791,336.0,A,color,0,17,168.7358803999996,168.7516764000011,169.2519100999998,169.23498120000113,169.23586070000056,169.2519100999998,169.83553700000084,169.83556189999945,170.3349263,170.33495949999997,170.83496940000077,174.6299627999997,175.6176942000002,171.83503060000112,171.8350377000006,172.25645910000094,174.62965500000064,color,nan,298.86930144788715,-37.13069855211285,1.0029147999994166,174.6298026000004,174.62982700000066,174.6298681999997,174.62989879999986,175.61840490000031,177.4178905000008,5.0,1.7871379000007437,169.85203899999942,,,,,,,,,,,,,,,,,,,813125,001,male,23,2025-12-14_21h18.13.669,RSD11,,2025.2.3,60,2025-12-14 21h18.14.476515 +0100,
17,0,17,,,,17,0,17,0,,,,,177.43402199999946,,,,,,,,,,165.90282084701178,354.0,A,color,0,18,177.4180935000004,177.43402199999946,177.93449929999952,177.91798840000047,177.91871700000047,177.93449929999952,178.51746339999954,178.51749220000056,179.01743050000005,179.0174549000003,179.51723599999968,191.74182959999962,192.73229920000085,180.51705960000072,180.51706730000114,180.8414087000001,191.74161360000107,orientation,-20.166540438201597,nan,nan,nan,191.7417320000004,191.74175579999974,191.74179120000008,191.74181040000076,192.73295150000013,194.24931099999958,4.0,1.501847199999247,178.53359400000045,,,,,,,,,,,,,,,,,,,813125,001,male,23,2025-12-14_21h18.13.669,RSD11,,2025.2.3,60,2025-12-14 21h18.14.476515 +0100,
18,0,18,,,,18,0,18,0,,,,,194.26513280000108,,,,,,,,,,1.5735749765996254,76.0,C,color,0,19,194.24954609999986,194.26513280000108,194.76500300000043,194.74857090000114,194.74933820000115,194.76500300000043,195.3492729999998,195.3492941000004,195.84876020000047,195.84974429999966,196.34846319999997,202.04131299999972,203.03090970000085,197.34792879999986,197.34793630000058,197.6714164999994,197.67145490000075,NA,nan,9.264523985132985,nan,nan,197.67147870000008,197.67149830000017,197.8324614000012,202.04120479999983,203.03172199999972,205.53109609999956,1.0,2.483830200000739,195.36588640000082,,,,,,,,,,,,,,,,,,,813125,001,male,23,2025-12-14_21h18.13.669,RSD11,,2025.2.3,60,2025-12-14 21h18.14.476515 +0100,
19,0,19,,,,19,0,19,0,,,,,205.5474807999999,,,,,,,,,,15.251488308630803,176.0,C,color,0,20,205.5316545000005,205.5474807999999,206.04746970000087,206.0308442000005,206.03165830000034,206.04746970000087,206.6304627999998,206.63048320000053,207.14684470000066,207.14687690000028,207.6475903999999,212.92285459999948,213.91295150000042,208.64676830000099,208.6467762000011,208.97296480000114,208.9729986000002,NA,nan,190.88552705465872,nan,nan,208.9730184,208.97303620000093,209.14005050000014,212.9227776000007,213.9135098000006,214.94577560000107,2.0,1.0184248999994452,206.64699120000114,,,,,,,,,,,,,,,,,,,813125,001,male,23,2025-12-14_21h18.13.669,RSD11,,2025.2.3,60,2025-12-14 21h18.14.476515 +0100,
20,0,20,,,,20,0,20,0,,,,,214.96192950000113,,,,,,,,,,66.23430157491148,320.0,A,orientation,0,21,214.94598150000093,214.96192950000113,,215.44634150000093,215.44755129999976,215.46296930000062,216.0462765000011,216.046307300001,216.54607690000012,216.54714199999944,217.04605530000117,223.7383960999996,224.72836070000085,218.04598559999977,218.0459931000005,218.46630600000026,223.73815790000117,orientation,-118.30075576600638,nan,nan,nan,223.7383030000001,223.7383277000008,223.7383600000012,223.7383776000006,224.7290436000003,225.99534669999957,5.0,1.2528884999992442,,,,,,,,,,,,,,,,,,,,813125,001,male,23,2025-12-14_21h18.13.669,RSD11,,2025.2.3,60,2025-12-14 21h18.14.476515 +0100,
21,0,21,,,,21,0,21,0,,,,,226.01123410000037,,,,,,,,,,156.9221250375388,354.0,O,orientation,0,22,225.99557749999985,226.01123410000037,226.51180250000107,226.49497879999944,226.4961660000008,226.51180250000107,227.09470929999952,227.09474430000046,227.59437380000054,227.5952085000008,228.0941383999998,232.51270169999952,233.51075219999984,229.11064410000108,229.1106522000009,229.42862090000017,229.42865350000102,orientation,-20.27972729039605,nan,nan,,229.42877000000044,232.5126196000001,232.5126548999997,232.5126780999999,233.51151240000036,235.06099340000037,6.0,1.5345360999999684,227.11118990000068,,,,,,,,,,,,,,,,,,,813125,001,male,23,2025-12-14_21h18.13.669,RSD11,,2025.2.3,60,2025-12-14 21h18.14.476515 +0100,
22,0,22,,,,22,0,22,0,,,,,235.07726159999947,,,,,,,,,,14.379392529142624,158.0,A,color,0,23,235.06121160000112,235.07726159999947,235.57740659999945,235.56062920000113,235.5614740000001,235.57740659999945,236.16049910000038,236.16051960000004,236.66059189999942,236.66141779999998,237.16062629999942,241.03806889999942,242.02639070000077,238.16055360000064,238.16056109999954,238.492494600001,241.03770670000085,color,nan,180.6227556872063,22.622755687206308,0.9831263999985822,241.03787779999948,241.03790540000045,241.03795250000076,241.0379742999994,242.026924400001,243.67666180000015,5.0,1.6362138999993476,236.1767192999996,,,,,,,,,,,,,,,,,,,813125,001,male,23,2025-12-14_21h18.13.669,RSD11,,2025.2.3,60,2025-12-14 21h18.14.476515 +0100,
23,0,23,,,,23,0,23,0,,,,,243.69253560000107,,,,,,,,,,145.66042022842404,176.0,A,orientation,0,24,243.6769075000011,243.69253560000107,244.19328920000044,244.17653090000022,244.1772165000002,244.19328920000044,244.77586580000025,244.77588699999978,245.27646190000087,245.27648659999977,245.77611330000036,250.78432000000066,251.77414959999987,246.77566280000065,246.7756702000006,247.0966554000006,250.7840398999997,orientation,-17.073966029945943,nan,nan,nan,250.7842031,250.78423509999993,250.78427589999956,250.78429490000053,251.7751659000005,253.55850099999952,6.0,1.7688453999999183,244.79220519999944,,,,,,,,,,,,,,,,,,,813125,001,male,23,2025-12-14_21h18.13.669,RSD11,,2025.2.3,60,2025-12-14 21h18.14.476515 +0100,
24,0,24,,,,24,0,24,0,,,,,253.57468660000086,,,,,,,,,,24.5614158940667,268.0,C,color,0,25,253.55873260000044,253.57468660000086,254.074857900001,254.0581001999999,254.05879219999952,254.074857900001,254.6577285000003,254.65775100000064,255.15783659999943,255.15869999999995,255.65782460000082,258.70149049999964,259.70721910000066,256.65800260000105,256.6580106000001,256.9863965000004,256.98642870000003,NA,nan,264.30959564937206,nan,nan,256.98644670000067,256.9864643000001,257.1542921,258.701368,259.70785869999963,261.1741419000009,4.0,1.4538897999991605,254.67418630000066,,,,,,,,,,,,,,,,,,,813125,001,male,23,2025-12-14_21h18.13.669,RSD11,,2025.2.3,60,2025-12-14 21h18.14.476515 +0100,
25,0,25,,,,25,0,25,0,,,,,261.1903600000005,,,,,,,,,,121.0272092234905,276.0,A,color,0,26,261.17438740000034,261.1903600000005,261.69068719999996,261.67402440000114,261.67463640000096,261.69068719999996,262.2740226999995,262.2740424000003,262.77404320000096,262.774899,263.2739222,271.73166110000057,272.72255120000045,264.2734949000005,264.2735028999996,264.7107737999995,271.7313656000006,orientation,-25.832876599514183,nan,nan,nan,271.7315331000009,271.73156279999967,271.7316025,271.73162559999946,272.7230939000001,274.0561495000002,5.0,1.3184339999988879,262.29066220000095,,,,,,,,,,,,,,,,,,,813125,001,male,23,2025-12-14_21h18.13.669,RSD11,,2025.2.3,60,2025-12-14 21h18.14.476515 +0100,
26,0,26,,,,26,0,26,0,,,,,274.072500100001,,,,,,,,,,173.02695488742927,264.0,O,orientation,0,27,274.05638929999986,274.072500100001,274.5723792000008,274.55561859999943,274.5563846999994,274.5723792000008,275.15555010000026,275.1555943000003,275.65529980000065,275.6560969000002,276.15493830000014,286.4547246000002,287.4539010999997,277.1715163000008,277.17152460000034,277.4907069000001,277.4907385000006,orientation,-1.125509028507435,nan,nan,,277.4908567000002,286.4546381,286.454674300001,286.45469779999985,287.4545803000001,289.4710470000009,5.0,2.002528399998482,275.1720841000006,,,,,,,,,,,,,,,,,,,813125,001,male,23,2025-12-14_21h18.13.669,RSD11,,2025.2.3,60,2025-12-14 21h18.14.476515 +0100,
27,0,27,,,,27,0,27,0,,,,,289.48731000000043,,,,,,,,,,63.224927516877486,150.0,O,orientation,0,28,289.4712868000006,289.48731000000043,289.986945300001,289.970145700001,289.9707997000005,289.986945300001,290.5704022000009,290.57042660000116,291.0700579000004,291.0700940000006,291.58670750000056,296.0067318000001,297.00254049999967,292.5866645999995,292.5866722999999,292.9071115000006,292.90714339999977,orientation,-89.30972280213493,nan,nan,,292.90730369999983,296.0066313999996,296.00667389999944,296.00670060000084,297.0031583,297.91991170000074,6.0,0.9028250999999727,290.58692189999965,,,,,,,,,,,,,,,,,,,813125,001,male,23,2025-12-14_21h18.13.669,RSD11,,2025.2.3,60,2025-12-14 21h18.14.476515 +0100,
28,0,28,,,,28,0,28,0,,,,,297.93696570000066,,,,,,,,,,23.14751960913512,56.0,A,orientation,0,29,297.92048460000115,297.93696570000066,,298.43580570000086,298.43658210000103,298.4525020000001,299.0358441999997,299.035875900001,299.53542519999974,299.53666499999963,300.03541210000003,305.84659509999983,306.8348676000005,301.0356651000002,301.0356726000009,301.35400560000016,305.84633790000044,orientation,-116.56505117707799,nan,nan,nan,305.84649139999965,305.8465159999996,305.84655440000097,305.84657270000025,306.83546490000117,307.61838870000065,5.0,0.7702573000005941,,,,,,,,,,,,,,,,,,,,813125,001,male,23,2025-12-14_21h18.13.669,RSD11,,2025.2.3,60,2025-12-14 21h18.14.476515 +0100,
29,0,29,,,,29,0,29,0,,,,,307.63458040000114,,,,,,,,,,138.31608001423342,156.0,A,orientation,0,30,307.6186381999996,307.63458040000114,308.1350206999996,308.1181018999996,308.1188844999997,308.1350206999996,308.7179033000011,308.7179285000002,309.2182341000007,309.2182666000008,309.7180937000012,313.6440204999999,314.6337973000009,310.7172000999999,310.7172078000003,311.0473316000007,313.64366320000045,color,nan,188.8925487082481,32.892548708248114,1.100396300000284,313.64383910000106,313.6438754999999,313.64391550000073,313.6439338,314.63438230000065,315.75201990000096,5.0,1.1001894000000902,308.7344176000006,,,,,,,,,,,,,,,,,,,813125,001,male,23,2025-12-14_21h18.13.669,RSD11,,2025.2.3,60,2025-12-14 21h18.14.476515 +0100,
,,,,,,,,,,,,,,,,,,,,,,,,,,,,,,,,,,,,,,,,,,,,,,,,,,,,,,,,,,,,,315.77306750000025,315.7760656999999,315.7760656999999,319.5002605999998,space,3.7111887999999453,None,,,,,,,,,,,,813125,001,male,23,2025-12-14_21h18.13.669,RSD11,,2025.2.3,60,2025-12-14 21h18.14.476515 +0100,
0,0,0,None,,,,,,,0,0,0,0,319.5166932000011,,,,,,,,,,161.32003509323582,108.0,C,color,1,1,,,,,320.0013101000004,320.0171661000004,320.5998498000008,320.5998761999999,321.09976970000025,321.10064030000103,321.59986860000026,325.29355770000075,326.2828045999995,322.5994307000001,322.59943810000004,323.04740669999956,323.0474417000005,NA,nan,120.63218743532633,nan,nan,323.0474597000011,323.04747690000113,323.21477890000097,325.2934514000008,326.2834751999999,327.63286920000064,7.0,1.335383499999807,320.6160794000007,,,,,,,,319.50111540000034,319.5166932000011,320.0171661000004,320.00032790000114,327.63731440000083,327.63733560000037,None,,,,,813125,001,male,23,2025-12-14_21h18.13.669,RSD11,,2025.2.3,60,2025-12-14 21h18.14.476515 +0100,
1,0,1,None,,,,,,,1,0,1,0,327.64882390000093,,,,,,,,,,36.28254861622543,262.0,O,orientation,1,2,,,,,328.1335175000004,328.1490895000006,328.7489542000003,328.74897539999984,329.2486480999996,329.2494614999996,329.7484662000006,332.6495914999996,333.64836560000003,330.7489278000012,330.7489361000007,331.0741951,331.0742274000004,orientation,48.1652063888104,nan,nan,,331.0743612999995,332.6495152999996,332.6495470000009,332.64956920000077,333.6491280000009,335.6151494000005,5.0,1.949781499999517,328.7488735000006,,,,,,,,327.6374355000007,327.64882390000093,328.1490895000006,328.1324540000005,335.6182031999997,335.61822120000033,None,,,,,813125,001,male,23,2025-12-14_21h18.13.669,RSD11,,2025.2.3,60,2025-12-14 21h18.14.476515 +0100,
2,0,2,None,,,,,,,2,0,2,0,335.63139109999975,,,,,,,,,,158.02071189565658,68.0,A,color,1,3,,,,,336.1154516000006,336.13142640000115,336.73158350000085,336.7316088000007,337.2313396999998,337.2322715999999,337.7308011999994,344.97450930000014,345.9636577000001,338.73030350000045,338.7303114999995,339.0509098000002,344.97425440000006,orientation,-31.38319105635903,nan,nan,nan,344.97440989999996,344.97443659999954,344.97447210000064,344.9744893999996,345.9643096,349.16363939999974,4.0,3.185735200000636,336.73148330000004,,,,,,,,335.6183228000009,335.63139109999975,336.13142640000115,336.1147469000007,349.1670027,349.1670245999994,None,,,,,813125,001,male,23,2025-12-14_21h18.13.669,RSD11,,2025.2.3,60,2025-12-14 21h18.14.476515 +0100,
3,0,3,None,,,,,,,3,0,3,0,349.1812690000006,,,,,,,,,,139.62581707386144,30.0,C,color,1,4,,,,,349.6804745999998,349.6970684000007,350.27956280000035,350.27959740000006,350.77973510000083,350.78075979999994,351.2798025000011,355.65685620000113,356.64537589999964,352.2797145000004,352.2797229000007,352.60248649999994,352.60251869999956,NA,nan,35.151929857354034,nan,nan,352.60253770000054,352.60255850000067,352.7678784,355.65672840000116,356.64590429999953,357.3126876999995,2.0,0.6524633999997604,,,,,,,,,349.1671337000007,349.1812690000006,,349.6797170000009,357.3155432000003,357.31556180000007,None,,,,,813125,001,male,23,2025-12-14_21h18.13.669,RSD11,,2025.2.3,60,2025-12-14 21h18.14.476515 +0100,
4,0,4,None,,,,,,,4,0,4,0,357.3288960000009,,,,,,,,,,47.779045827661164,272.0,A,color,1,5,,,,,357.8129358999995,357.82878560000063,358.42888459999995,358.4289138000004,358.92855600000075,358.9293904999995,359.4301035999997,365.9199979999994,366.9110715000006,360.4286196000012,360.4286272999998,360.7617054000002,365.91964460000054,orientation,-116.56505117707799,nan,nan,nan,365.91984740000044,365.9198959000005,365.9199456000006,365.91997600000104,366.91183980000096,368.34477510000033,4.0,1.4210275000004913,358.42877059999955,,,,,,,,357.3156577000009,357.3288960000009,357.82878560000063,357.81205650000084,368.34805640000013,368.34807569999975,None,,,,,813125,001,male,23,2025-12-14_21h18.13.669,RSD11,,2025.2.3,60,2025-12-14 21h18.14.476515 +0100,
5,0,5,None,,,,,,,5,0,5,0,368.36059920000116,,,,,,,,,,41.37858025484592,234.0,O,orientation,1,6,,,,,368.8449684999996,368.8609690000012,369.46060039999975,369.46062080000047,369.96056580000004,369.96135499999946,370.4603633000006,379.31220460000077,380.3088509999998,371.4601536000009,371.46016360000067,371.7798124000001,371.77984339999966,orientation,62.88442292885153,nan,nan,,371.77995850000116,379.31211930000063,379.3121537999996,379.31217560000005,380.30944459999955,381.4596909000011,2.0,1.1371852000011131,369.4605413999998,,,,,,,,368.3481738999999,368.36059920000116,368.8609690000012,368.84419479999997,381.4626392000009,381.46266000000105,None,,,,,813125,001,male,23,2025-12-14_21h18.13.669,RSD11,,2025.2.3,60,2025-12-14 21h18.14.476515 +0100,
6,0,6,None,,,,,,,6,0,6,0,381.4758247999998,,,,,,,,,,9.56372440953098,282.0,A,color,1,7,,,,,381.9597382000011,381.975824000001,382.57552190000024,382.575547800001,383.0751868999996,383.07607090000056,383.5750456000005,388.0203956000005,389.00814360000004,384.5756538000005,384.57566210000005,384.9088575000005,388.02014319999944,orientation,-138.17983011986425,nan,nan,nan,388.0202967999994,388.02032150000014,388.02035740000065,388.02037519999976,389.0087970000004,393.2412466000005,3.0,4.219106200000169,382.5753650000006,,,,,,,,381.46276670000043,381.4758247999998,381.975824000001,381.9590108000011,393.24443969999993,393.24445899999955,None,,,,,813125,001,male,23,2025-12-14_21h18.13.669,RSD11,,2025.2.3,60,2025-12-14 21h18.14.476515 +0100,
7,0,7,None,,,,,,,7,0,7,0,393.25744060000034,,,,,,,,,,5.850793165875654,358.0,A,color,1,8,,,,,393.741911000001,393.75784700000077,394.357569400001,394.35767400000077,394.8573305000009,394.85736200000065,395.35724780000055,398.8355826999996,399.82344659999944,396.3574881000004,396.35749620000024,396.68015000000014,398.83527460000005,color,nan,347.5331113368225,-10.466888663177485,1.0826372000010451,398.8354283000008,398.8354637000011,398.8355050000009,398.83552280000004,399.82418770000004,400.6567722,2.0,0.818983199998911,394.35742310000023,,,,,,,,393.24456180000016,393.25744060000034,393.75784700000077,393.74120140000014,400.65985060000094,400.6598704000007,None,,,,,813125,001,male,23,2025-12-14_21h18.13.669,RSD11,,2025.2.3,60,2025-12-14 21h18.14.476515 +0100,
8,0,8,None,,,,,,,8,0,8,0,400.6728086000003,,,,,,,,,,9.253710124453766,44.0,A,orientation,1,9,,,,,401.15667870000107,401.1725974000001,401.7725597000008,401.7725853000011,402.27322920000006,402.27325910000036,402.77311630000077,407.3662863999998,408.35593680000056,403.7727852000007,403.7727930000001,404.08743049999975,407.3660208000001,orientation,-126.86989764584402,nan,nan,nan,407.3661723999994,407.36619770000107,407.36623789999976,407.36625640000057,408.3565630000012,409.88943560000007,2.0,1.5186393999993015,401.7724388000006,,,,,,,,400.6599688999995,400.6728086000003,401.1725974000001,401.1560253000007,409.89270750000105,409.8927282000004,None,,,,,813125,001,male,23,2025-12-14_21h18.13.669,RSD11,,2025.2.3,60,2025-12-14 21h18.14.476515 +0100,
9,0,9,None,,,,,,,9,0,9,0,409.9056335999994,,,,,,,,,,141.3991063612912,308.0,A,color,1,10,,,,,410.3894269000011,410.4055206000012,411.005543700001,411.0055666999997,411.50533200000064,411.50537559999975,412.0055940000002,416.599032600001,417.58795719999944,413.00520010000037,413.0052082000002,413.33219120000103,416.5987683000003,orientation,-27.937142826538604,nan,nan,nan,416.59890710000036,416.5989327999996,416.5989963000011,416.5990135000011,417.5886465000003,418.78791959999944,3.0,1.1852094999994733,411.00548040000103,,,,,,,,409.8928348999998,409.9056335999994,410.4055206000012,410.3887615000003,418.79092239999954,418.7909405999999,None,,,,,813125,001,male,23,2025-12-14_21h18.13.669,RSD11,,2025.2.3,60,2025-12-14 21h18.14.476515 +0100,
10,0,10,None,,,,,,,10,0,10,0,418.8036305000005,,,,,,,,,,178.58974026934968,294.0,O,orientation,1,11,,,,,419.2885409999999,419.3043995000007,419.9042124000007,419.90423499999997,420.40421120000065,420.4050795000003,420.9043675000012,428.0885263,429.0863719000008,421.9038395000007,421.90384749999976,422.35303700000077,422.3530713,orientation,22.619864948040426,nan,nan,,422.35319730000083,428.08844320000026,428.08847830000013,428.0885008000005,429.0871715000012,431.2199990000008,4.0,2.119658299998264,419.90414580000106,,,,,,,,418.7910396999996,418.8036305000005,419.3043995000007,419.2878290000008,431.2231434999994,431.2231618000005,None,,,,,813125,001,male,23,2025-12-14_21h18.13.669,RSD11,,2025.2.3,60,2025-12-14 21h18.14.476515 +0100,
11,0,11,None,,,,,,,11,0,11,0,431.2360896000009,,,,,,,,,,126.647237277556,356.0,A,color,1,12,,,,,431.7201246000004,431.7360879000007,432.3365107999998,432.3365467000003,432.83630040000025,432.83731799999987,433.3364722999995,439.44450940000024,440.43522889999986,434.3356485000004,434.33565610000005,434.65680299999985,439.4441760999998,orientation,-23.498565675952097,nan,nan,nan,439.4443948999997,439.44443110000066,439.44446960000096,439.4444870999996,440.43619820000094,441.58553570000004,5.0,1.1351938000007067,432.33644730000015,,,,,,,,431.2232617000009,431.2360896000009,431.7360879000007,431.7194980000004,441.5885521,441.5885698000002,None,,,,,813125,001,male,23,2025-12-14_21h18.13.669,RSD11,,2025.2.3,60,2025-12-14 21h18.14.476515 +0100,
12,0,12,None,,,,,,,12,0,12,0,441.60201589999997,,,,,,,,,,154.14877485530062,172.0,C,color,1,13,,,,,442.08669069999996,442.1019632000007,442.7016383000009,442.7016635,443.2014412000008,443.2024442000002,443.7013301999996,447.2445355,448.2346230000003,444.7017037000005,444.70171160000064,445.03007419999994,445.0301066000011,NA,nan,178.4465968758318,nan,nan,445.0301259000007,445.0301434000012,445.1989527000005,447.24446010000065,448.2352570000003,449.50133280000045,5.0,1.2521931000010227,442.70148619999964,,,,,,,,441.58866390000003,441.60201589999997,442.1019632000007,442.0858086999997,449.5044822,449.50450170000113,None,,,,,813125,001,male,23,2025-12-14_21h18.13.669,RSD11,,2025.2.3,60,2025-12-14 21h18.14.476515 +0100,
13,0,13,None,,,,,,,13,0,13,0,449.517428000001,,,,,,,,,,41.438352146054605,338.0,A,orientation,1,14,,,,,450.0014406999999,450.01757240000006,450.6173555999994,450.6173916000007,451.11719600000106,451.11814720000075,451.6170674999994,455.07601650000106,456.0671089999996,452.6164886000006,452.61650220000047,452.92760610000005,455.075745600001,color,nan,312.75425743410494,-25.245742565895057,0.7004748999988806,455.0758876,455.0759111999996,455.0759500000004,455.0759675999998,456.06770250000045,456.71852919999947,3.0,0.6334131000003254,450.6172875000011,,,,,,,,449.50460250000106,449.517428000001,450.01757240000006,450.0007820999999,456.7222720999998,456.7222906999996,None,,,,,813125,001,male,23,2025-12-14_21h18.13.669,RSD11,,2025.2.3,60,2025-12-14 21h18.14.476515 +0100,
14,0,14,None,,,,,,,14,0,14,0,456.7333572999996,,,,,,,,,,69.48788881060977,258.0,A,color,1,15,,,,,457.21751810000023,457.23342539999976,457.8332212999994,457.8332470999994,458.33253739999964,458.3325765999998,458.8325431000012,462.1424014000004,463.133184100001,459.83314580000115,459.8331541000007,460.1589831000001,462.1420761999998,color,nan,268.4252549342468,10.425254934246823,0.833524399999078,462.14224730000024,462.1422745,462.1423324999996,462.1423498000004,463.13378100000045,464.74967710000055,5.0,1.6026928999999654,457.83312210000076,,,,,,,,456.72238970000035,456.7333572999996,457.23342539999976,457.21681680000074,464.7529336000007,464.75295410000035,None,,,,,813125,001,male,23,2025-12-14_21h18.13.669,RSD11,,2025.2.3,60,2025-12-14 21h18.14.476515 +0100,
15,0,15,None,,,,,,,15,0,15,0,464.7654992000007,,,,,,,,,,37.10901313799188,224.0,C,color,1,16,,,,,465.24994999999944,465.26584899999943,465.8656656000003,465.86569190000046,466.36551110000073,466.3664788999995,466.8649282000006,469.4934236000008,470.4818092000005,467.8652634000009,467.86527130000104,468.1923078,468.19234549999965,NA,nan,230.34708160029936,nan,nan,468.19236490000003,468.19238290000067,468.3623459999999,469.4932196000009,470.48239470000044,471.4320705000009,4.0,0.9351417999987461,465.86557429999993,,,,,,,,464.7530535999995,464.7654992000007,465.26584899999943,465.24915280000096,471.4352964999998,471.4353150000006,None,,,,,813125,001,male,23,2025-12-14_21h18.13.669,RSD11,,2025.2.3,60,2025-12-14 21h18.14.476515 +0100,
16,0,16,None,,,,,,,16,0,16,0,471.4481818000004,,,,,,,,,,53.87967565741799,334.0,C,color,1,17,,,,,471.9321856000006,471.94823200000064,472.54833359999975,472.54835450000064,473.04795320000085,473.04797959999996,473.54805490000035,480.17455230000087,481.16393419999986,474.5482952000002,474.54831340000055,474.8723983,474.8724292000006,NA,nan,292.9606306379023,nan,nan,474.8724483999995,474.8724665000009,475.0371046,480.17444520000026,481.16455830000086,481.96348860000035,1.0,0.7841622000014468,472.54827339999974,,,,,,,,471.43541259999984,471.4481818000004,471.94823200000064,471.93136080000113,481.9668851999995,481.96690470000067,None,,,,,813125,001,male,23,2025-12-14_21h18.13.669,RSD11,,2025.2.3,60,2025-12-14 21h18.14.476515 +0100,
17,0,17,None,,,,,,,17,0,17,0,481.97952480000095,,,,,,,,,,164.26928908743264,246.0,A,orientation,1,18,,,,,482.4646012000012,482.4802971000008,483.0799900000002,483.08002510000006,483.5801222000009,483.58104339999954,484.08025629999975,488.30719580000004,489.2960390999997,485.0796026000007,485.07961240000077,485.4121765,488.3068999999996,color,nan,233.13010235415598,-12.86989764584402,1.8328136000000086,488.3070392000009,488.3070662000009,488.30711040000097,488.3071294000001,489.2965703000009,491.74595640000007,3.0,2.4359191999992618,483.0799031000006,,,,,,,,481.96700840000085,481.97952480000095,482.4802971000008,482.4637982000004,491.7487946000001,491.7488135000003,None,,,,,813125,001,male,23,2025-12-14_21h18.13.669,RSD11,,2025.2.3,60,2025-12-14 21h18.14.476515 +0100,
18,0,18,None,,,,,,,18,0,18,0,491.7622162000007,,,,,,,,,,98.92555367199103,272.0,O,orientation,1,19,,,,,492.24648440000055,492.26222600000074,492.8622843000012,492.8623296000005,493.362017200001,493.36277169999994,493.8616019000001,497.980841300001,498.97833979999996,494.86117899999954,494.8611870000004,495.19688920000044,495.1969246999997,orientation,-46.88818800674093,nan,nan,,495.19708530000025,497.9807493999997,497.9807920000003,497.9808152000005,498.9790116000004,500.17838310000116,5.0,1.1869423000007373,492.8621146000005,,,,,,,,491.7489106000012,491.7622162000007,492.26222600000074,492.24572380000063,500.1815673000001,500.18158720000065,None,,,,,813125,001,male,23,2025-12-14_21h18.13.669,RSD11,,2025.2.3,60,2025-12-14 21h18.14.476515 +0100,
19,0,19,None,,,,,,,19,0,19,0,500.1945061000006,,,,,,,,,,175.73212818623233,178.0,A,orientation,1,20,,,,,500.6785015000005,500.69451649999974,501.294306400001,501.2943317999998,501.7943670000004,501.7951611999997,502.2944762999996,510.75375110000095,511.7432798000009,503.29371040000115,503.2937185999999,503.62435709999954,510.7534988999996,orientation,-154.75029774952685,nan,nan,nan,510.7536538000004,510.75368080000044,510.7537149,510.75373220000074,511.7471213000008,512.410127000001,2.0,0.6527327999992849,501.2942163000007,,,,,,,,500.18169320000015,500.1945061000006,500.69451649999974,500.6778140999995,512.4132430999998,512.4132628999996,None,,,,,813125,001,male,23,2025-12-14_21h18.13.669,RSD11,,2025.2.3,60,2025-12-14 21h18.14.476515 +0100,
20,0,20,None,,,,,,,20,0,20,0,512.4263583000011,,,,,,,,,,138.78767896802574,158.0,O,orientation,1,21,,,,,512.9105522999998,512.9263310999995,513.5263211000001,513.5263520000008,514.0263761000006,514.0271279000008,514.5258496999995,519.5776709000002,520.5752797999994,515.5254545999996,515.5254635000001,515.8492330000008,515.8492672000011,orientation,171.235899172122,nan,nan,,515.8494009999995,519.5775969000006,519.5776274,519.5776490000007,520.5759085999998,523.5754608999996,4.0,2.9862513999996736,513.5262481000009,,,,,,,,512.4133652,512.4263583000011,512.9263310999995,512.9097825000008,523.5787010000004,523.5787201000003,None,,,,,813125,001,male,23,2025-12-14_21h18.13.669,RSD11,,2025.2.3,60,2025-12-14 21h18.14.476515 +0100,
21,0,21,None,,,,,,,21,0,21,0,523.5919056000002,,,,,,,,,,104.13411838172956,286.0,A,color,1,22,,,,,524.0757106000001,524.091824000001,524.6916593999995,524.6916922,525.1916342000004,525.1925518000007,525.6915663,531.5848268000009,532.5738237000005,526.6914206000001,526.691428600001,527.1527466999996,531.5845331,color,nan,269.6034957448669,-16.396504255133095,2.30124700000124,531.5846911999997,531.5847192000001,531.5847570999995,531.5847738000011,532.5745951999997,535.4074429000011,3.0,2.817958199999339,524.6915485000009,,,,,,,,523.5788155000009,523.5919056000002,524.091824000001,524.0750855000006,535.4104851000011,535.4105044999997,None,,,,,813125,001,male,23,2025-12-14_21h18.13.669,RSD11,,2025.2.3,60,2025-12-14 21h18.14.476515 +0100,
22,0,22,None,,,,,,,22,0,22,0,535.4234412999995,,,,,,,,,,155.4355796197535,128.0,O,orientation,1,23,,,,,535.9078449000008,535.9237936999998,536.5237677999994,536.5237969000009,537.0236882000008,537.0246392999998,537.5234977,542.8088105000006,543.8061952999997,538.5229488000004,538.522957000001,538.8488952000007,538.8489275000011,orientation,176.7526572096771,nan,nan,,538.849074400001,542.8087230000001,542.8087598000002,542.8087845000009,543.8067967999996,544.5224493000005,5.0,0.699462599999606,536.5236784999997,,,,,,,,535.4106045999997,535.4234412999995,535.9237936999998,535.9069946,544.5257289000001,544.5257483999994,None,,,,,813125,001,male,23,2025-12-14_21h18.13.669,RSD11,,2025.2.3,60,2025-12-14 21h18.14.476515 +0100,
23,0,23,None,,,,,,,23,0,23,0,544.5386391000011,,,,,,,,,,93.41077941923825,146.0,C,color,1,24,,,,,545.0236507000009,545.0397298999997,545.6390549999996,545.639081700001,546.1393502999999,546.1401234000004,546.6392823000006,552.948769300001,553.9385259999999,547.6392868000003,547.6392981999998,547.9665611,547.9665965000004,NA,nan,133.65387171588696,nan,nan,547.9666171999997,547.9666381999996,548.1266069000012,552.9486797999998,553.9391154000004,556.321296600001,4.0,2.3674668000003294,545.6389491999998,,,,,,,,544.5258501999997,544.5386391000011,545.0397298999997,545.0229534000009,556.3249087000004,556.3249260000011,None,,,,,813125,001,male,23,2025-12-14_21h18.13.669,RSD11,,2025.2.3,60,2025-12-14 21h18.14.476515 +0100,
24,0,24,None,,,,,,,24,0,24,0,556.3373286999995,,,,,,,,,,147.72462762204293,54.0,A,color,1,25,,,,,556.8219611000004,556.8381279999994,557.4376563000005,557.4376936000008,557.9373777000001,557.9382820999999,558.4376322999997,563.9969447000003,564.9868915000006,559.4373792000006,559.4373876999998,559.758221600001,563.9966691999998,orientation,-4.327648203108186,nan,nan,nan,563.9968396000004,563.9968647000005,563.9969008000007,563.996919700001,564.9876304999998,566.9870695000009,5.0,1.9853329000015947,557.4375345999997,,,,,,,,556.3250274000002,556.3373286999995,556.8381279999994,556.8212598000009,566.9900386000008,566.9900572999995,None,,,,,813125,001,male,23,2025-12-14_21h18.13.669,RSD11,,2025.2.3,60,2025-12-14 21h18.14.476515 +0100,
25,0,25,None,,,,,,,25,0,25,0,567.0027189000011,,,,,,,,,,172.74722547839053,58.0,A,orientation,1,26,,,,,567.4874994000002,567.503154,568.1026471000005,568.1026760000004,568.6023430000005,568.6023843000003,569.1025011000002,573.9958920000008,574.9861555000007,570.1022344000012,570.1022444000009,570.4194650000009,573.9955234999998,color,nan,60.06848815949221,2.0684881594922047,2.0980401000015263,573.9956796000006,573.9957044000002,573.9957434999997,573.9957610000001,574.986867900001,576.1354095999995,5.0,1.1343448000006902,568.1025927999999,,,,,,,,566.9901480999997,567.0027189000011,567.503154,567.4867835999994,576.1389947000007,576.1390122000012,None,,,,,813125,001,male,23,2025-12-14_21h18.13.669,RSD11,,2025.2.3,60,2025-12-14 21h18.14.476515 +0100,
26,0,26,None,,,,,,,26,0,26,0,576.1516284000008,,,,,,,,,,142.74683861888957,338.0,C,color,1,27,,,,,576.6366599000012,576.6521377999998,577.2515117000003,577.251540700001,577.751979300001,577.7529261,578.2514604999997,582.3285561000012,583.3179092999999,579.2515523000002,579.2515624999996,579.5799098999996,579.5799566999995,NA,nan,357.73204546409414,nan,nan,579.5799891999995,579.5800121000011,579.7522356000009,582.328469,583.3186344999995,586.7339470999996,1.0,3.398951199998919,577.2514427999995,,,,,,,,576.1391366000007,576.1516284000008,576.6521377999998,576.6358447000002,586.7372331000006,586.7372515999996,None,,,,,813125,001,male,23,2025-12-14_21h18.13.669,RSD11,,2025.2.3,60,2025-12-14 21h18.14.476515 +0100,
27,0,27,None,,,,,,,27,0,27,0,586.7500496000011,,,,,,,,,,174.36416941608286,100.0,A,orientation,1,28,,,,,587.2344991000009,587.2502428999996,587.8508048000003,587.8508259999999,588.350713400001,588.3515836000006,588.8504764000008,597.1920248999995,598.1825982000009,589.8507150999994,589.8507232000011,590.3330879999994,597.1917324999995,orientation,174.51640955553557,nan,nan,nan,597.1919264000007,597.1919534999997,597.1919875000003,597.1920052000005,598.1833186000003,599.1824138000011,2.0,0.9851678000013635,587.8507159000001,,,,,,,,586.7373535000006,586.7500496000011,587.2502428999996,587.2336362000005,599.1856674999999,599.1856852000001,None,,,,,813125,001,male,23,2025-12-14_21h18.13.669,RSD11,,2025.2.3,60,2025-12-14 21h18.14.476515 +0100,
28,0,28,None,,,,,,,28,0,28,0,599.1986993999999,,,,,,,,,,52.31717063341341,234.0,O,orientation,1,29,,,,,599.6827002000009,599.6985571000005,600.2997759000009,600.2998007000006,600.7990332999998,600.7997678000011,601.2989918000003,608.816880800001,609.8146756000006,602.298850000001,602.2988587,602.6239655000008,602.6239966000012,orientation,57.9946167919165,nan,nan,,602.6241143000007,608.8167934000012,608.8168306000007,608.8168533999997,609.8153550000006,611.3149319000004,1.0,1.483043700000053,600.299670800001,,,,,,,,599.1857823000009,599.1986993999999,599.6985571000005,599.6818815999995,611.3179562000005,611.3179744999998,None,,,,,813125,001,male,23,2025-12-14_21h18.13.669,RSD11,,2025.2.3,60,2025-12-14 21h18.14.476515 +0100,
29,0,29,None,,,,,,,29,0,29,0,611.3309590999997,,,,,,,,,,162.3126592380435,180.0,A,orientation,1,30,,,,,611.8149676000012,611.8310256000004,612.4310683000003,612.4310920999997,612.9308082000007,612.9317444000008,613.4308684000007,618.1904911000001,619.1801276999995,614.4305278000011,614.4305380999995,614.758994400001,618.1901572999996,color,nan,191.84826623841442,11.848266238414425,1.43349599999965,618.1903359000007,618.1903624999995,618.1904107000009,618.1904288999995,619.1807549000005,621.4304861,3.0,2.236502499999915,612.4309966000001,,,,,,,,611.3180688000011,611.3309590999997,611.8310256000004,611.8142724000008,621.4336481000009,621.4336689000011,None,,,,,813125,001,male,23,2025-12-14_21h18.13.669,RSD11,,2025.2.3,60,2025-12-14 21h18.14.476515 +0100,
30,0,30,None,,,,,,,30,0,30,0,621.4463811000005,,,,,,,,,,73.65791739342112,120.0,C,color,1,31,,,,,621.9306323000001,621.9463754000008,622.5459963000012,622.546025900001,623.0462742,623.0471536000005,623.5462281,626.2406038999998,627.2291549000001,624.5460856999998,624.5460941000001,624.8841186000009,624.8841539999994,NA,nan,120.46554491945989,nan,nan,624.8841733000008,624.8841914000004,625.0493766,626.2405006999998,627.2298246999999,627.8794711999999,7.0,0.6364905000009458,622.5458739000005,,,,,,,,621.4337792000006,621.4463811000005,621.9463754000008,621.9297919,627.8827101999996,627.8827333999998,None,,,,,813125,001,male,23,2025-12-14_21h18.13.669,RSD11,,2025.2.3,60,2025-12-14 21h18.14.476515 +0100,
31,0,31,None,,,,,,,31,0,31,0,627.8954289000012,,,,,,,,,,22.36253568796698,354.0,C,color,1,32,,,,,628.3797644999995,628.3955337000007,628.9951959999999,628.9952269000005,629.4950291999994,629.495066200001,629.9946447000002,632.6723839999995,633.6616083000008,630.9951574999996,630.9951658999998,631.3367202000009,631.3367529999996,NA,nan,355.9004865965981,nan,nan,631.3367770000004,631.3367964999998,631.5051473000003,632.6722700000009,633.6622654000003,635.3115787000006,6.0,1.6357367000000522,628.9950857000003,,,,,,,,627.8828647999999,627.8954289000012,628.3955337000007,628.3789999,635.3153454000003,635.3153631999994,None,,,,,813125,001,male,23,2025-12-14_21h18.13.669,RSD11,,2025.2.3,60,2025-12-14 21h18.14.476515 +0100,
32,0,32,None,,,,,,,32,0,32,0,635.3275809000006,,,,,,,,,,147.31221383494832,280.0,O,orientation,1,33,,,,,635.8120663999998,635.8272412999995,636.4285474999997,636.4285744000008,636.9279750000005,636.9289043000008,637.4278670000003,643.4310747,644.4264094999999,638.4277749000012,638.4277830999999,638.7674803999998,638.7675168000005,orientation,-9.409821508443356,nan,nan,,638.7676606999994,643.4309518000009,643.4310002000002,643.4310397000008,644.4270581000001,645.8104297000009,5.0,1.3701815999993414,636.4284422000001,,,,,,,,635.3154671000011,635.3275809000006,635.8272412999995,635.8112395000007,645.8141558999996,645.8141749999995,None,,,,,813125,001,male,23,2025-12-14_21h18.13.669,RSD11,,2025.2.3,60,2025-12-14 21h18.14.476515 +0100,
33,0,33,None,,,,,,,33,0,33,0,645.8265852000004,,,,,,,,,,143.18018177953397,216.0,A,orientation,1,34,,,,,646.311156400001,646.3267534000006,646.9268143000008,646.9268394999999,647.4268190000003,647.4276516999998,647.9266427000002,654.4527259999995,655.4422089,648.926460300001,648.9264686999995,649.4615733999999,654.4523857000004,orientation,-25.20112364547507,nan,nan,nan,654.4525683000011,654.4526098999995,654.4526819000002,654.4527008000005,655.4428210999995,658.3425447999998,5.0,2.886284899999737,646.9267261999994,,,,,,,,645.8142759000002,645.8265852000004,646.3267534000006,646.3103388,658.3457079,658.3457280000002,None,,,,,813125,001,male,23,2025-12-14_21h18.13.669,RSD11,,2025.2.3,60,2025-12-14 21h18.14.476515 +0100,
34,0,34,None,,,,,,,34,0,34,0,658.3585230000008,,,,,,,,,,69.71758674351828,310.0,A,color,1,35,,,,,658.8428519999998,658.8583395999995,659.4585733000004,659.4585994000008,659.9582902000002,659.9583203000002,660.4584147999994,663.6023908000006,664.5910561000001,661.4582437999998,661.4582521000011,661.7894163000001,663.6020109000001,color,nan,300.5070861697579,-9.492913830242117,0.7672299999994721,663.602163900001,663.6022019000011,663.6022443000002,663.6022625000005,664.5917893000005,666.1082176,4.0,1.503447300001426,659.4584720000003,,,,,,,,658.3458303000007,658.3585230000008,658.8583395999995,658.8419735000007,666.1114914000009,666.1115119999995,None,,,,,813125,001,male,23,2025-12-14_21h18.13.669,RSD11,,2025.2.3,60,2025-12-14 21h18.14.476515 +0100,
35,0,35,None,,,,,,,35,0,35,0,666.124219700001,,,,,,,,,,137.75733805441405,30.0,O,orientation,1,36,,,,,666.6084289999999,666.6242794999998,667.2239461999998,667.2239669999999,667.7238293999999,667.7247274000001,668.2237337000006,671.1600008000005,672.1559433000002,669.2237736999996,669.2237813000011,669.5516585000005,669.5516953000006,orientation,-21.648485171067968,nan,nan,,669.5518666000007,671.1598857000008,671.1599438000012,671.1599729000009,672.1566621000002,672.8238708999997,7.0,0.6516381999990699,667.2238890000008,,,,,,,,666.1116190000012,666.124219700001,666.6242794999998,666.6077645999994,672.827048000001,672.8270666999997,None,,,,,813125,001,male,23,2025-12-14_21h18.13.669,RSD11,,2025.2.3,60,2025-12-14 21h18.14.476515 +0100,
36,0,36,None,,,,,,,36,0,36,0,672.8399307,,,,,,,,,,33.278703797471806,192.0,C,color,1,37,,,,,673.3238848000001,673.3402048000007,673.9393823999999,673.9394099000001,674.4394195000004,674.4401715000004,674.9394544999996,677.4666557,678.456169000001,675.9398603000009,675.9398681000002,676.2616257999998,676.2616570000009,NA,nan,197.535761538446,nan,nan,676.2616756999996,676.2616992000003,676.4269615000012,677.4665748999996,678.4567277999995,679.0065092000004,6.0,0.5332242999993468,673.9393072000003,,,,,,,,672.8271631000007,672.8399307,673.3402048000007,673.3232416999999,679.0099403000004,679.0099602000009,None,,,,,813125,001,male,23,2025-12-14_21h18.13.669,RSD11,,2025.2.3,60,2025-12-14 21h18.14.476515 +0100,
37,0,37,None,,,,,,,37,0,37,0,679.0226953000001,,,,,,,,,,136.49171772531395,74.0,A,color,1,38,,,,,679.5066889000009,679.5224670000007,680.1219469999996,680.1219761000011,680.6223812000007,680.6232078000012,681.1222885000006,685.8007293999999,686.7885206999999,682.1221311000008,682.1221430000005,682.4415315000006,685.800433800001,color,nan,53.09144124024412,-20.908558759755863,0.7695161999999982,685.8005793000011,685.8006022000009,685.8006425000003,685.8006607999996,686.7890812999995,687.4397628999996,4.0,0.6344913000011729,680.1218798999998,,,,,,,,679.0101090000007,679.0226953000001,679.5224670000007,679.5060054999994,687.4434894999995,687.443507,None,,,,,813125,001,male,23,2025-12-14_21h18.13.669,RSD11,,2025.2.3,60,2025-12-14 21h18.14.476515 +0100,
38,0,38,None,,,,,,,38,0,38,0,687.4550118999996,,,,,,,,,,150.64853437646008,340.0,A,color,1,39,,,,,687.9393359999995,687.9551401000008,688.5551587000009,688.5551833000009,689.0549384000005,689.0549745000008,689.5550982000004,692.9309962000007,693.9211888999998,690.5547975000009,690.5548073000009,690.8837721,692.9306670000005,color,nan,308.8989128838456,-31.101087116154417,0.5170366000002105,692.9308378000005,692.9308620000011,692.9309097000005,692.9309322999998,693.9219095999997,694.6714480999999,6.0,0.7367698000016389,688.5550201999995,,,,,,,,687.4436050000004,687.4550118999996,687.9551401000008,687.9386898000012,694.6748468999995,694.6748652000006,None,,,,,813125,001,male,23,2025-12-14_21h18.13.669,RSD11,,2025.2.3,60,2025-12-14 21h18.14.476515 +0100,
39,0,39,None,,,,,,,39,0,39,0,694.6873493000003,,,,,,,,,,24.862893873420468,154.0,O,orientation,1,40,,,,,695.1715788000001,695.1877093000003,695.7873159999999,695.7873383000006,696.287621200001,696.2885008000012,696.7872626000008,701.2045918000003,702.2035670000005,697.7871821000008,697.7871906,698.1068585000012,698.1068892000003,orientation,-140.06361685303008,nan,nan,,698.1070201000002,701.2045061999997,701.2045429999998,701.2045646000006,702.2043152000006,704.1702793000004,4.0,1.9535013000004255,695.7872530000004,,,,,,,,694.6749619000002,694.6873493000003,695.1877093000003,695.1709172999999,704.1739484999998,704.1739668000009,None,,,,,813125,001,male,23,2025-12-14_21h18.13.669,RSD11,,2025.2.3,60,2025-12-14 21h18.14.476515 +0100,
40,0,40,None,,,,,,,40,0,40,0,704.1861119000005,,,,,,,,,,129.6688276780375,308.0,A,color,1,41,,,,,704.6707002000003,704.6862820999995,705.2863839000001,705.2864100999996,705.7862468000003,705.7870569000006,706.2862192000011,710.5301892999996,711.5189571999999,707.2857873000012,707.2857955,707.8349326999996,710.5298937999996,orientation,-21.991129917177126,nan,nan,nan,710.5300757999994,710.5301080000008,710.5301509000001,710.5301691000004,711.5199432000009,715.385123,5.0,3.851933399999325,705.2862899000011,,,,,,,,704.1740640999997,704.1861119000005,704.6862820999995,704.6697887999999,715.3883028,715.3883232999997,None,,,,,813125,001,male,23,2025-12-14_21h18.13.669,RSD11,,2025.2.3,60,2025-12-14 21h18.14.476515 +0100,
41,0,41,None,,,,,,,41,0,41,0,715.4014464000011,,,,,,,,,,10.10506876914553,174.0,A,color,1,42,,,,,715.8856312000007,715.9016627000001,716.5017597999995,716.5017881000003,717.0011379000007,717.0011740000009,717.5014614000011,721.4268412000001,722.4175811999994,718.5013036,718.5013132000004,718.8274194999995,721.4265720000003,orientation,-149.03624346792648,nan,nan,nan,721.4267390999994,721.4267646999997,721.4268035999994,721.4268207999994,722.4183649000006,722.9178943999996,2.0,0.4837133000000904,716.5014876000005,,,,,,,,715.3884259000006,715.4014464000011,715.9016627000001,715.8848909999997,722.9211426000002,722.9211620000005,None,,,,,813125,001,male,23,2025-12-14_21h18.13.669,RSD11,,2025.2.3,60,2025-12-14 21h18.14.476515 +0100,
42,0,42,None,,,,,,,42,0,42,0,722.9343919000003,,,,,,,,,,126.45102184807924,190.0,A,orientation,1,43,,,,,723.4182087999998,723.4345169999997,724.0341270000008,724.0341513000003,724.5339731000004,724.5340102000009,725.0333974000005,728.8605571000007,729.8500894999997,726.0341607000009,726.0341688999997,726.3700822999999,728.8603082000009,color,nan,195.83526479289745,5.835264792897448,1.15052950000063,728.8604321000003,728.8604549000011,728.8604916000004,728.8605074000006,729.8506632000008,731.100112600001,6.0,1.2355208999997558,724.0340428,,,,,,,,722.9212652999995,722.9343919000003,723.4345169999997,723.4174084000006,731.1033879000006,731.1034072000002,None,,,,,813125,001,male,23,2025-12-14_21h18.13.669,RSD11,,2025.2.3,60,2025-12-14 21h18.14.476515 +0100,
43,0,43,None,,,,,,,43,0,43,0,731.1166623000008,,,,,,,,,,128.8259633064782,270.0,C,color,1,44,,,,,731.6011966000005,731.6165634000008,732.2163359999995,732.2163567999996,732.7163065000004,732.7174563999997,733.2161512000002,740.4426359999998,741.4317714000008,734.2157516999996,734.215760000001,734.5458952000008,734.5459348000004,NA,nan,274.6627393362546,nan,nan,734.5459637000004,734.5459828000003,734.7133262999996,740.4425184000011,741.4324711999998,742.4822296000002,2.0,1.0336473999996088,732.2162728000003,,,,,,,,731.1035064000007,731.1166623000008,731.6165634000008,731.6005439,742.4853478000005,742.4853671000001,None,,,,,813125,001,male,23,2025-12-14_21h18.13.669,RSD11,,2025.2.3,60,2025-12-14 21h18.14.476515 +0100,
44,0,44,None,,,,,,,44,0,44,0,742.4984294000005,,,,,,,,,,152.76523968627228,148.0,A,color,1,45,,,,,742.9823340000003,742.9984762000004,743.5982342000007,743.5982672999999,744.0983347000001,744.0990651000011,744.5982222000002,749.475091100001,750.4639996000005,745.5995129000003,745.5995210000001,745.9155971,749.4748505000007,orientation,-2.489552921999156,nan,nan,nan,749.4749876999995,749.4750132999998,749.4750490999995,749.4750679999997,750.464595200001,752.3637415000012,3.0,1.8864164000005985,743.5979905000004,,,,,,,,742.4854685000009,742.4984294000005,742.9984762000004,742.9816467,752.366763,752.3667817000005,None,,,,,813125,001,male,23,2025-12-14_21h18.13.669,RSD11,,2025.2.3,60,2025-12-14 21h18.14.476515 +0100,
45,0,45,None,,,,,,,45,0,45,0,752.3800093999998,,,,,,,,,,97.17979326585821,230.0,O,orientation,1,46,,,,,752.8637899000005,752.8798399999996,753.4805011999997,753.4805439000011,753.9801404000009,753.9810190000007,754.4801617000012,758.8143278999996,759.8131105000011,755.4797271000007,755.4797613999999,755.8043708000005,755.8044049,orientation,-64.4400348281762,nan,nan,,755.8045371000007,758.8142399999997,758.8142700999997,758.8143043,759.8137537000002,760.5802254999999,4.0,0.7501444000008632,753.4803819000008,,,,,,,,752.3668773000009,752.3800093999998,752.8798399999996,752.8629460000011,760.5840397000011,760.5840661000002,None,,,,,813125,001,male,23,2025-12-14_21h18.13.669,RSD11,,2025.2.3,60,2025-12-14 21h18.14.476515 +0100,
46,0,46,None,,,,,,,46,0,46,0,760.5959510000012,,,,,,,,,,148.82409695270923,182.0,O,orientation,1,47,,,,,761.0801023000004,761.0960508000007,761.6961200000005,761.6961403999994,762.1959822000008,762.1960084000002,762.6959963999998,767.1825936999994,768.1785068000008,763.6960073999999,763.6960170000002,764.0212776000008,764.0213087000011,orientation,-25.78556485595951,nan,nan,,764.0214293000008,767.1824893000012,767.1825311000011,767.1825643000011,768.1790727999996,769.0119266000002,5.0,0.8189788999989105,761.6960624000003,,,,,,,,760.5841971000009,760.5959510000012,761.0960508000007,761.0792662000003,769.0150493000001,769.0150682000003,None,,,,,813125,001,male,23,2025-12-14_21h18.13.669,RSD11,,2025.2.3,60,2025-12-14 21h18.14.476515 +0100,
47,0,47,None,,,,,,,47,0,47,0,769.0285304000008,,,,,,,,,,96.68639044304659,266.0,A,color,1,48,,,,,769.5122181000006,769.5278661000011,770.1280920000008,770.1281197999997,770.6277408000005,770.6287081999999,771.1279790999997,775.6217768999995,776.6107207999994,772.1280664999995,772.1280743000007,772.6228838999996,775.6214748000002,color,nan,278.47981792685005,12.479817926850046,1.0666352999996889,775.6216206999998,775.6216457999999,775.6217053,775.6217233000007,776.6113311999998,780.0435066000009,5.0,3.419293999999354,770.1279083000009,,,,,,,,769.0151667000009,769.0285304000008,769.5278661000011,769.5114775000002,780.0468913000004,780.0469086000012,None,,,,,813125,001,male,23,2025-12-14_21h18.13.669,RSD11,,2025.2.3,60,2025-12-14 21h18.14.476515 +0100,
48,0,48,None,,,,,,,48,0,48,0,780.059512400001,,,,,,,,,,55.14590051689682,120.0,A,orientation,1,49,,,,,780.5453519000002,780.5605372000009,781.1605402000005,781.1605770000006,781.6600686000002,781.6601083999994,782.1604611000002,785.6538806999997,786.6429224000003,783.1602455000011,783.1602535000002,783.4767673000006,785.6535677000011,color,nan,120.22544972495342,0.22544972495342108,0.6512894000006781,785.6537167999995,785.6537394000006,785.6537826000003,785.6538011000011,786.6436042000005,787.1430656000011,7.0,0.4864555999993172,781.1604127999999,,,,,,,,780.0470043999994,780.059512400001,780.5605372000009,780.5439170000009,787.146606100001,787.1466259000008,None,,,,,813125,001,male,23,2025-12-14_21h18.13.669,RSD11,,2025.2.3,60,2025-12-14 21h18.14.476515 +0100,
49,0,49,None,,,,,,,49,0,49,0,787.159085700001,,,,,,,,,,112.62152588914279,50.0,A,orientation,1,50,,,,,787.6431625000005,787.6591979000004,788.2587380999994,788.2587631000006,788.7594104,788.7594442000009,789.2592537,793.7183361000007,794.7088432,790.2590727000006,790.2590805,790.5936992999996,793.7180148999996,orientation,-32.47119229084849,nan,nan,nan,793.7182152999994,793.7182417000004,793.7182802999996,793.7183028,794.7094660000002,795.6588687000003,6.0,0.9361303000005137,788.2586517,,,,,,,,787.1467243999996,787.159085700001,787.6591979000004,787.6424184000007,795.6622179999995,795.6622396000002,None,,,,,813125,001,male,23,2025-12-14_21h18.13.669,RSD11,,2025.2.3,60,2025-12-14 21h18.14.476515 +0100,
50,0,50,None,,,,,,,50,0,50,0,795.6750752999997,,,,,,,,,,136.4180022581195,60.0,C,color,1,51,,,,,796.1591397000011,796.1750955999996,796.7750348000009,796.7750620000006,797.2749889999996,797.2759371000011,797.7750278000003,802.3178790000002,803.3076548999998,798.7747804999999,798.7747889000002,799.106698900001,799.1067371999998,NA,nan,57.36060601070024,nan,nan,799.1067610999999,799.1067808999996,799.2745355000006,802.317744,803.3083179000005,803.8745555999994,2.0,0.5523014000009425,796.7749294999994,,,,,,,,795.6623529999997,795.6750752999997,796.1750955999996,796.1584232999994,803.8775585000003,803.8775784999998,None,,,,,813125,001,male,23,2025-12-14_21h18.13.669,RSD11,,2025.2.3,60,2025-12-14 21h18.14.476515 +0100,
51,0,51,None,,,,,,,51,0,51,0,803.8908002999997,,,,,,,,,,34.35532843704085,0.0,C,color,1,52,,,,,804.3748078000008,804.3907959000007,804.9908398999996,804.9908730999996,805.4905770000005,805.4906121000004,805.9905789000004,808.5350204999995,809.5232589999996,806.9901534,806.9901616999996,807.3139427999995,807.3139735000004,NA,nan,4.6255058706050685,nan,nan,807.3139908000012,807.3140081000001,807.4794091000003,808.5349105000005,809.5239292999995,810.0734369000002,7.0,0.5357024999993882,804.9906762999999,,,,,,,,803.8776827000002,803.8908002999997,804.3907959000007,804.3741033999995,810.0765262000004,810.0765439999996,None,,,,,813125,001,male,23,2025-12-14_21h18.13.669,RSD11,,2025.2.3,60,2025-12-14 21h18.14.476515 +0100,
52,0,52,None,,,,,,,52,0,52,0,810.0898066000009,,,,,,,,,,110.19492925154842,340.0,A,orientation,1,53,,,,,810.5744809999997,810.5904295,811.1829424999996,811.1829663999997,811.6729097000007,811.6739324999999,812.1896916000005,819.9984490999996,820.9890835000006,813.1893981000012,813.1894059000006,813.5172464999996,819.9980680000008,orientation,154.39781244855823,nan,nan,nan,819.9982538000004,819.9982863999994,819.9983829000012,819.9984177999995,820.9903551999996,822.1556017000003,4.0,1.1515847999999096,,,,,,,,,810.0766423000005,810.0898066000009,810.5904295,810.5737676000008,822.1589585000002,822.158977000001,None,,,,,813125,001,male,23,2025-12-14_21h18.13.669,RSD11,,2025.2.3,60,2025-12-14 21h18.14.476515 +0100,
53,0,53,None,,,,,,,53,0,53,0,822.1716149000003,,,,,,,,,,64.29524532300128,248.0,A,color,1,54,,,,,822.6566198,822.6719647000009,823.2718103000007,823.2718365000001,823.7717508000005,823.7717878000003,824.2713531999998,828.3338346,829.3212201000006,825.2715688999997,825.271581500001,825.6059294000006,828.3335523999995,color,nan,246.39429331923094,-1.6057066807690603,0.8863543999996182,828.333690200001,828.3337224999996,828.3337621999999,828.3337797000004,829.321788700001,829.9547775999999,1.0,0.6163242000002356,823.2717095000007,,,,,,,,822.1591284000006,822.1716149000003,822.6719647000009,822.6557506000008,829.9585021000003,829.9585222999995,None,,,,,813125,001,male,23,2025-12-14_21h18.13.669,RSD11,,2025.2.3,60,2025-12-14 21h18.14.476515 +0100,
54,0,54,None,,,,,,,54,0,54,0,829.9706488000011,,,,,,,,,,122.33385200450665,228.0,A,color,1,55,,,,,830.4549382000005,830.4711399000007,831.0702340999997,831.0702650000003,831.5709109,831.5709485000007,832.0706898000008,836.1309706000011,837.1202573999999,833.0706635000006,833.0706714999997,833.4097622000008,836.1306490000006,color,nan,232.82574516640892,4.825745166408922,0.6178916999997455,836.1308229999995,836.1308473000008,836.1308838000004,836.1309046999995,837.1209185999996,838.9533061000002,1.0,1.8195679000000382,831.0701606000002,,,,,,,,829.9586311000003,829.9706488000011,830.4711399000007,830.4541673000003,838.9567740000002,838.9567938,None,,,,,813125,001,male,23,2025-12-14_21h18.13.669,RSD11,,2025.2.3,60,2025-12-14 21h18.14.476515 +0100,
55,0,55,None,,,,,,,55,0,55,0,838.9697405999996,,,,,,,,,,50.87465002993853,354.0,C,color,1,56,,,,,839.4540725000006,839.4694768000008,840.0690974999998,840.0691258000006,840.5699315000002,840.5708278000002,841.0697801000006,846.4298933000009,847.4190342000002,842.0689029000005,842.0689143,842.5865383,842.5865699999995,NA,nan,318.5423611921937,nan,nan,842.5865883999995,842.5866055999995,842.7454161000005,846.4297664000005,847.419632000001,847.9357994000002,1.0,0.5009933000001183,840.0690238000007,,,,,,,,838.9568939000001,838.9697405999996,839.4694768000008,839.4531377000003,847.9390070000009,847.9390261999997,None,,,,,813125,001,male,23,2025-12-14_21h18.13.669,RSD11,,2025.2.3,60,2025-12-14 21h18.14.476515 +0100,
56,0,56,None,,,,,,,56,0,56,0,847.9517737999995,,,,,,,,,,39.07361932858502,38.0,O,orientation,1,57,,,,,848.4364719999994,848.4523948999995,849.0522953,849.0523245000004,849.5521745000005,849.5529255000001,850.0518014999998,859.1395243000006,860.133608600001,851.0513780000001,851.0513854000001,851.3726669999996,851.3727115000002,orientation,-125.18682659675645,nan,nan,,851.3728360999994,859.1394163999994,859.1394684000006,859.1394978000008,860.1343701000005,861.8841671000009,2.0,1.7381295999985014,849.0521831000005,,,,,,,,847.9391324999997,847.9517737999995,848.4523948999995,848.4356547999996,861.8880260999995,861.8880489000003,None,,,,,813125,001,male,23,2025-12-14_21h18.13.669,RSD11,,2025.2.3,60,2025-12-14 21h18.14.476515 +0100,
57,0,57,None,,,,,,,57,0,57,0,861.9000732000004,,,,,,,,,,51.35233302979679,110.0,A,color,1,58,,,,,862.3844115000011,862.4003634000001,863.0002949000009,863.0003233000007,863.500219900001,863.5010481999998,864.0000583000001,866.8284571000004,867.8164365000011,865.0000005000002,865.0000086,865.3363939999999,866.8280949,color,nan,126.5630958685941,16.563095868594104,0.7356512999995175,866.8282687999999,866.8282939000001,866.8283420999996,866.8283614000011,867.8172697000009,869.6997143999997,5.0,1.867631999999503,863.0001718000003,,,,,,,,861.8881579999997,861.9000732000004,862.4003634000001,862.3836759000005,869.7028599000005,869.7028803000012,None,,,,,813125,001,male,23,2025-12-14_21h18.13.669,RSD11,,2025.2.3,60,2025-12-14 21h18.14.476515 +0100,
58,0,58,None,,,,,,,58,0,58,0,869.7161519000001,,,,,,,,,,44.28299772430067,22.0,O,orientation,1,59,,,,,870.2004407000004,870.2163570000012,870.8159367999997,870.8159632000006,871.3157712000011,871.3166569999994,871.8156835000009,876.4862388000001,877.4819129000007,872.8157360999994,872.8157443,873.1517239000004,873.1517586999998,orientation,-125.13419305691563,nan,nan,,873.1519026000005,876.4861132000005,876.4861677000008,876.4861916000009,877.4825954999997,880.4986153999998,5.0,3.0041978000008385,870.8158354000007,,,,,,,,869.7029839999996,869.7161519000001,870.2163570000012,870.1996245000009,880.5019615000001,880.5019837,None,,,,,813125,001,male,23,2025-12-14_21h18.13.669,RSD11,,2025.2.3,60,2025-12-14 21h18.14.476515 +0100,
59,0,59,space,2.841193399999611,None,,,,,59,0,59,0,880.5145364,,,,,,,,,,120.22033313543693,214.0,O,orientation,1,60,,,,,880.9989545000008,881.0150747000007,881.6147555999996,881.6147806999998,882.1146251999999,882.1146590999997,882.6145701999994,888.5487847000004,889.5473117000001,883.6142426000006,883.6142510999998,883.9516079999994,883.9516433999997,orientation,-117.18111108547723,nan,nan,,883.9517871000007,888.5486591000008,888.5487161000001,888.5487489999996,889.5479785000007,890.3142260000004,1.0,0.7533452000006946,881.6146599000003,,,,,,,,880.5021009000011,880.5145364,881.0150747000007,880.9982369999998,890.3322079999998,893.1797470000001,space,890.3349195999999,890.3349195999999,2.841193399999611,None,813125,001,male,23,2025-12-14_21h18.13.669,RSD11,,2025.2.3,60,2025-12-14 21h18.14.476515 +0100,
60,0,60,None,,,,,,,60,0,60,0,893.196060100001,,,,,,,,,,130.99777609967654,8.0,A,color,2,1,,,,,893.6805848000004,893.6966074000011,894.2799637999997,894.2799902000006,894.7797501999994,894.7807740999997,895.2794855000011,898.7553017000009,899.746132100001,896.2794235000001,896.2794310999998,896.6189909000004,898.754991400001,orientation,-26.757318171876566,nan,nan,nan,898.7551770999999,898.7552030999996,898.755259900001,898.7552806000003,899.7468022000012,900.3295710000002,1.0,0.5670497000010073,,,,,,,,,893.1798696000005,893.196060100001,893.6966074000011,893.6798450999995,900.333343100001,900.3333627000011,None,,,,,813125,001,male,23,2025-12-14_21h18.13.669,RSD11,,2025.2.3,60,2025-12-14 21h18.14.476515 +0100,
61,0,61,None,,,,,,,61,0,61,0,900.3456561000003,,,,,,,,,,147.0223996213056,294.0,A,orientation,2,2,,,,,900.8300849000007,900.8456827000009,901.4454910000004,901.4455190000008,901.9456484000002,901.9456834000011,902.4454523000004,905.6214493000007,906.6118545000008,903.4453788999999,903.4453869999998,903.7741034999999,905.6211595000004,color,nan,294.94791785390146,0.9479178539014583,0.615394099999321,905.6213115999999,905.6213358000005,905.6213743999997,905.6213920999999,906.6125685000006,908.1618720999995,1.0,1.535786399999779,901.4453778999996,,,,,,,,900.3334687000006,900.3456561000003,900.8456827000009,900.8292349000003,908.1653426000012,908.1653623000002,None,,,,,813125,001,male,23,2025-12-14_21h18.13.669,RSD11,,2025.2.3,60,2025-12-14 21h18.14.476515 +0100,
62,0,62,None,,,,,,,62,0,62,0,908.1781444000007,,,,,,,,,,111.43962581109267,332.0,C,color,2,3,,,,,908.6620008999998,908.6782705999995,909.2780745,909.2780970000003,909.777773400001,909.7785689000011,910.2776727,916.4205148000001,917.4102478000004,911.2773562000002,911.2773644000008,911.6081303999999,911.6081649999996,NA,nan,298.393019421383,nan,nan,911.6081835999994,911.6082017999997,911.9781337000004,916.4204167999997,917.4113410999998,918.7275428000012,1.0,1.3034462999985408,909.2779681000011,,,,,,,,908.1654615999996,908.1781444000007,908.6782705999995,908.6613348999999,918.7307691000005,918.730786600001,None,,,,,813125,001,male,23,2025-12-14_21h18.13.669,RSD11,,2025.2.3,60,2025-12-14 21h18.14.476515 +0100,
63,0,63,None,,,,,,,63,0,63,0,918.7432932000011,,,,,,,,,,74.69198673146798,122.0,O,orientation,2,4,,,,,919.2276545000004,919.2434979999998,919.8431777000005,919.8432030000004,920.3428213000007,920.3438117999995,920.8429166999995,924.9108082000002,925.908570900001,921.8431068999998,921.8431146000003,922.1708529999996,922.1708870000002,orientation,-90.0,nan,nan,,922.1710132000007,924.9107170000007,924.9107572000012,924.9107803000006,925.9091943000003,928.8256390000006,4.0,2.9012762000002112,919.8430908999999,,,,,,,,918.7308831999999,918.7432932000011,919.2434979999998,919.226719100001,928.8286504999996,928.8286669999998,None,,,,,813125,001,male,23,2025-12-14_21h18.13.669,RSD11,,2025.2.3,60,2025-12-14 21h18.14.476515 +0100,
64,0,64,None,,,,,,,64,0,64,0,928.8417516999998,,,,,,,,,,64.76020924918416,300.0,A,orientation,2,5,,,,,929.3258726000004,929.3416594000009,929.9422157000008,929.9422448000005,930.4421330000005,930.4432362999996,930.9419873000006,938.0448006000006,939.0410346000008,931.9414771000011,931.9414852000009,932.267111000001,938.0442781000002,orientation,-109.6538240580533,nan,nan,nan,938.044490100001,938.0445981000012,938.0446709000007,938.0447082999999,939.0417166000007,940.474068200001,4.0,1.419674999999188,929.9420981000003,,,,,,,,928.8287636000005,928.8417516999998,929.3416594000009,929.3251646000008,940.4776643000005,940.4776839000006,None,,,,,813125,001,male,23,2025-12-14_21h18.13.669,RSD11,,2025.2.3,60,2025-12-14 21h18.14.476515 +0100,
65,0,65,None,,,,,,,65,0,65,0,940.4904113000011,,,,,,,,,,19.837247981372258,276.0,C,color,2,6,,,,,940.975117,940.9910013000008,941.5912000999997,941.591227500001,942.0905873000011,942.0914365999997,942.5906429000006,946.568088,947.5565459999998,943.5906673999998,943.5906757000012,943.919683600001,943.9197194999997,NA,nan,269.80105712063937,nan,nan,943.9197385000007,943.9197572000012,944.082167300001,946.5679796000004,947.5571443999997,948.2903533000008,5.0,0.7189964999997756,941.5910762000003,,,,,,,,940.4777840999996,940.4904113000011,940.9910013000008,940.9741773999995,948.2938561999999,948.2938735999996,None,,,,,813125,001,male,23,2025-12-14_21h18.13.669,RSD11,,2025.2.3,60,2025-12-14 21h18.14.476515 +0100,
66,0,66,None,,,,,,,66,0,66,0,948.3068346,,,,,,,,,,122.46388934145568,32.0,A,orientation,2,7,,,,,948.7904489000011,948.8065375000006,949.4062790000007,949.4063213999998,949.9060205000005,949.9069164000011,950.4064135999997,955.7826888,956.7720368000009,951.4061987999994,951.4062064000009,951.7328521,955.7824560999998,orientation,-36.119340849479755,nan,nan,nan,955.7825878000003,955.7826120999998,955.7826490000007,955.7826690000002,956.7726598000008,957.7725264000001,5.0,0.9853206999996473,949.4062080000003,,,,,,,,948.2939703000011,948.3068346,948.8065375000006,948.7898103000007,957.7758271000002,957.7758465000006,None,,,,,813125,001,male,23,2025-12-14_21h18.13.669,RSD11,,2025.2.3,60,2025-12-14 21h18.14.476515 +0100,
67,0,67,None,,,,,,,67,0,67,0,957.7888999000006,,,,,,,,,,126.25422279518239,290.0,A,color,2,8,,,,,958.272946000001,958.2888012000003,958.8887898000012,958.8888189000008,959.3886381000011,959.3886768000011,959.9001852000001,963.464864900001,964.4548297000001,960.8883758000011,960.8883838000002,961.2263361000005,963.4645292000005,color,nan,290.309853932135,0.3098539321350131,1.1997057000007771,963.4647129999994,963.464737100001,963.4647798000005,963.4647982999995,964.4553968,964.9881507000009,2.0,0.5163898999999219,958.8887066000007,,,,,,,,957.7759461000005,957.7888999000006,958.2888012000003,958.2723091000007,964.9913789000002,964.9913988000008,None,,,,,813125,001,male,23,2025-12-14_21h18.13.669,RSD11,,2025.2.3,60,2025-12-14 21h18.14.476515 +0100,
68,0,68,None,,,,,,,68,0,68,0,965.0045621000008,,,,,,,,,,167.19574997505404,240.0,A,color,2,9,,,,,965.4888633999999,965.5041180999997,966.1041306999996,966.1041617999999,966.6047037999997,966.6047393000008,967.1047858000002,972.5973785999995,973.5867109999999,968.1041557000008,968.1041634000012,968.4330066000002,972.5970995000007,orientation,-16.955313052025204,nan,nan,nan,972.5972423000003,972.5972667999995,972.5973355999995,972.5973549000009,973.5874820999998,974.6037747000009,4.0,1.0003579999993235,966.1040174999998,,,,,,,,964.9915355000012,965.0045621000008,965.5041180999997,965.4880658000002,974.6071579,974.6071761000003,None,,,,,813125,001,male,23,2025-12-14_21h18.13.669,RSD11,,2025.2.3,60,2025-12-14 21h18.14.476515 +0100,
69,0,69,None,,,,,,,69,0,69,0,974.6200697000004,,,,,,,,,,70.95686778185275,0.0,A,color,2,10,,,,,975.1040013000002,975.1198344000004,975.7197737999995,975.7197964000006,976.219786900001,976.2198169000003,976.7195458999995,980.0296491999998,981.0192490000009,977.7191739999998,977.7191824000001,978.0531360999994,980.0293049000011,color,nan,0.9612483860247474,0.9612483860247494,0.43231070000001637,980.0294972000011,980.0295222000004,980.0295686000009,980.0295872000006,981.0199422000005,982.6858035000005,1.0,1.652512900000147,975.7197119000011,,,,,,,,974.6072750000003,974.6200697000004,975.1198344000004,975.1033358000004,982.6890953000002,982.6891132000001,None,,,,,813125,001,male,23,2025-12-14_21h18.13.669,RSD11,,2025.2.3,60,2025-12-14 21h18.14.476515 +0100,
70,0,70,None,,,,,,,70,0,70,0,982.7017931000009,,,,,,,,,,126.54178530659074,60.0,A,color,2,11,,,,,983.1861358999995,983.2022460000007,983.8019141000004,983.8019475000001,984.3021176000002,984.3021514000011,984.8017975000002,988.4961889999995,989.4847596,985.801684600001,985.8016927999997,986.141570400001,988.4956060000004,color,nan,50.86960044301471,-9.130399556985282,1.3999979000000167,988.4957971000003,988.4958294000007,988.4958781999994,988.4958972000004,989.4854768999994,990.2518717000003,5.0,0.7510671000000002,983.8017696000006,,,,,,,,982.6892133000001,982.7017931000009,983.2022460000007,983.1853523999998,990.2553939000009,990.2554171000011,None,,,,,813125,001,male,23,2025-12-14_21h18.13.669,RSD11,,2025.2.3,60,2025-12-14 21h18.14.476515 +0100,
71,0,71,None,,,,,,,71,0,71,0,990.2679000999997,,,,,,,,,,143.4108133291469,324.0,A,orientation,2,12,,,,,990.7520500999999,990.7678527000007,991.3676637999997,991.3676885000004,991.8679548,991.8679900000006,992.3678400000008,995.7440920999998,996.7340844000009,993.367799900001,993.3678080000009,993.9031986000009,995.7437253000007,color,nan,303.4709642746457,-20.529035725354277,0.581658700000844,995.7439046,995.7439339000011,995.7439758,995.7440105000005,996.7346845000011,998.1173507000003,7.0,1.3682175000012649,991.3675942999998,,,,,,,,990.2555518000008,990.2679000999997,990.7678527000007,990.7513448999998,998.1205062999998,998.1205258000009,None,,,,,813125,001,male,23,2025-12-14_21h18.13.669,RSD11,,2025.2.3,60,2025-12-14 21h18.14.476515 +0100,
72,0,72,None,,,,,,,72,0,72,0,998.1335443000007,,,,,,,,,,84.44591764953739,268.0,O,orientation,2,13,,,,,998.6173799000007,998.6335531000004,999.2336962999998,999.2337344000007,999.7333971999997,999.7343713000009,1000.2334843999997,1003.6521954,1004.6492997000005,1001.2331613000006,1001.233169000001,1001.5565886000004,1001.556622600001,orientation,-93.1363583683326,nan,nan,,1001.5567908000012,1003.6520980999994,1003.6521372999996,1003.6521704000006,1004.6500305999998,1006.6997623000007,6.0,2.0368352999994386,999.2336002000011,,,,,,,,998.1206268000005,998.1335443000007,998.6335531000004,998.6166475999999,1006.703257000001,1006.7032751999996,None,,,,,813125,001,male,23,2025-12-14_21h18.13.669,RSD11,,2025.2.3,60,2025-12-14 21h18.14.476515 +0100,
73,0,73,None,,,,,,,73,0,73,0,1006.7162136000006,,,,,,,,,,53.02446507534676,204.0,A,orientation,2,14,,,,,1007.2001216000008,1007.2165139999997,1007.8156282,1007.8156598999994,1008.3158920000005,1008.3166302000009,1008.8158315000001,1012.9593528000005,1013.9484462,1009.8152095999994,1009.8152174999996,1010.1367950000003,1012.9591302999997,orientation,-96.519801751657,nan,nan,nan,1012.9592537999997,1012.9592802000006,1012.9593155000002,1012.9593323999998,1013.9491782000005,1014.9821539000004,5.0,1.0174845999990794,,,,,,,,,1006.7033732,1006.7162136000006,1007.2165139999997,1007.1994446000008,1014.9857248000008,1014.9857427000006,None,,,,,813125,001,male,23,2025-12-14_21h18.13.669,RSD11,,2025.2.3,60,2025-12-14 21h18.14.476515 +0100,
74,0,74,None,,,,,,,74,0,74,0,1014.998180300001,,,,,,,,,,67.02680186829151,316.0,C,color,2,15,,,,,1015.4824384000003,1015.4983035999994,1016.0979143000004,1016.0979372000002,1016.5976597999997,1016.598609300001,1017.0981202000003,1019.3908087,1020.3810470999997,1018.097799000001,1018.0978080000004,1018.4279002000003,1018.4279452999999,NA,nan,303.02386755579664,nan,nan,1018.427968,1018.4279870000009,1018.5955489999997,1019.3906346000003,1020.3816397999999,1021.0478528000003,6.0,0.6519535000006726,1016.0978458999998,,,,,,,,1014.9858502999996,1014.998180300001,1015.4983035999994,1015.4816369,1021.0514285000008,1021.051446200001,None,,,,,813125,001,male,23,2025-12-14_21h18.13.669,RSD11,,2025.2.3,60,2025-12-14 21h18.14.476515 +0100,
75,0,75,None,,,,,,,75,0,75,0,1021.0641823000005,,,,,,,,,,139.68653678528295,166.0,A,orientation,2,16,,,,,1021.5482298000006,1021.5636955999998,1022.1638397999996,1022.1638667000007,1022.6636366000002,1022.6644852999998,1023.1635975999998,1031.1226886000004,1032.1130436000003,1024.1637779000012,1024.1637857999995,1024.4881638999996,1031.1224743000002,orientation,-39.25939336104809,nan,nan,nan,1031.122590500001,1031.1226148000005,1031.1226499000004,1031.1226690000003,1032.1136819000003,1033.3129200000003,4.0,1.1832990999992035,1022.1637394999998,,,,,,,,1021.0515432000011,1021.0641823000005,1021.5636955999998,1021.5473916999999,1033.3161163000004,1033.3161345000008,None,,,,,813125,001,male,23,2025-12-14_21h18.13.669,RSD11,,2025.2.3,60,2025-12-14 21h18.14.476515 +0100,
76,0,76,None,,,,,,,76,0,76,0,1033.3292222,,,,,,,,,,96.92713831361246,112.0,O,orientation,2,17,,,,,1033.8132277000004,1033.8288924999997,1034.4287244000006,1034.4287521000006,1034.929353200001,1034.930099700001,1035.4292580000001,1040.3810618000007,1041.378786700001,1036.4288828000008,1036.4288909999996,1036.7583911000002,1036.7584248000003,orientation,-61.189206257026946,nan,nan,,1036.7585565999998,1040.3809763999998,1040.3810128999994,1040.3810355000005,1041.3793934999994,1042.0121459000002,5.0,0.6168274999999994,1034.428647300001,,,,,,,,1033.3162333,1033.3292222,1033.8288924999997,1033.812423700001,1042.0158697000006,1042.0158890000002,None,,,,,813125,001,male,23,2025-12-14_21h18.13.669,RSD11,,2025.2.3,60,2025-12-14 21h18.14.476515 +0100,
77,0,77,None,,,,,,,77,0,77,0,1042.0283975000002,,,,,,,,,,42.473501736646085,252.0,C,color,2,18,,,,,1042.5123509000005,1042.5282700999996,1043.1278020000009,1043.1278254999997,1043.6279754999996,1043.6287854000002,1044.1275831000003,1048.337124900001,1049.3275924000009,1045.1280597000004,1045.1280700000007,1045.459589600001,1045.459632600001,NA,nan,283.9432309205537,nan,nan,1045.4596591999998,1045.4596820999996,1045.6208394999994,1048.3370135999994,1049.328142100001,1049.9609609,1.0,0.6188093000000663,1043.127744200001,,,,,,,,1042.0159928000012,1042.0283975000002,1042.5282700999996,1042.5116641000004,1049.9641919000005,1049.96421,None,,,,,813125,001,male,23,2025-12-14_21h18.13.669,RSD11,,2025.2.3,60,2025-12-14 21h18.14.476515 +0100,
78,0,78,None,,,,,,,78,0,78,0,1049.9772131000009,,,,,,,,,,61.475701919535815,8.0,A,orientation,2,19,,,,,1050.4614122000003,1050.4776233000011,1051.0771994999996,1051.0772226000008,1051.577156700001,1051.5779655000006,1052.0771280000008,1058.1686883000002,1059.1596570000002,1053.0765924999996,1053.0766003999997,1053.4059279000012,1058.1683735000006,color,nan,307.71404087351976,-60.285959126480236,0.9330248000005668,1058.1685099000006,1058.1685337,1058.1685732999995,1058.1685914999998,1059.1602925000007,1059.6765671000012,1.0,0.5026234999986627,1051.0771370000002,,,,,,,,1049.9643108,1049.9772131000009,1050.4776233000011,1050.4605919000005,1059.6798715000004,1059.6798904999996,None,,,,,813125,001,male,23,2025-12-14_21h18.13.669,RSD11,,2025.2.3,60,2025-12-14 21h18.14.476515 +0100,
79,0,79,None,,,,,,,79,0,79,0,1059.6928546,,,,,,,,,,48.747240621911025,142.0,A,orientation,2,20,,,,,1060.1768035000005,1060.192666500001,1060.792327700001,1060.792349700001,1061.291996,1061.2920618000007,1061.7921853999997,1070.0020416000007,1070.9915648999995,1062.7928470000006,1062.7928597999999,1063.3622226999996,1070.0017411999997,orientation,45.0,nan,nan,nan,1070.0018942999995,1070.0019207000005,1070.0019872000012,1070.002005100001,1070.9923254000005,1072.375097,3.0,1.3706554000000324,1060.7922694999997,,,,,,,,1059.6800003000008,1059.6928546,1060.192666500001,1060.1761318999997,1072.3786371000006,1072.3786617999995,None,,,,,813125,001,male,23,2025-12-14_21h18.13.669,RSD11,,2025.2.3,60,2025-12-14 21h18.14.476515 +0100,
80,0,80,None,,,,,,,80,0,80,0,1072.3913107000008,,,,,,,,,,37.38288215326655,282.0,O,orientation,2,21,,,,,1072.8756935000001,1072.8915390000002,1073.4912132999998,1073.4912384,1073.9912160000003,1073.992107600001,1074.4912335999998,1077.8266428999996,1078.8236577999996,1075.4912419000011,1075.4912518,1075.8125006999999,1075.8125333999997,orientation,-119.74488129694222,nan,nan,,1075.8126587999996,1077.8265628999998,1077.8265935,1077.826615,1078.8243254999998,1080.1256744000002,3.0,1.2846177999999782,1073.4911087,,,,,,,,1072.3787809000005,1072.3913107000008,1072.8915390000002,1072.874966700001,1080.1294531000003,1080.1294717,None,,,,,813125,001,male,23,2025-12-14_21h18.13.669,RSD11,,2025.2.3,60,2025-12-14 21h18.14.476515 +0100,
81,0,81,None,,,,,,,81,0,81,0,1080.1405613999996,,,,,,,,,,6.172165420263553,60.0,A,color,2,22,,,,,1080.6247242000009,1080.6403498,1081.2401893000006,1081.240211800001,1081.7400353000012,1081.7407619999994,1082.2398054999994,1085.6660095999996,1086.6567329999998,1083.240138700001,1083.2401461000009,1083.5644129000011,1085.665666500001,color,nan,57.000209671885294,-2.999790328114699,0.5667554999999993,1085.6658473999996,1085.665871700001,1085.665910900001,1085.6659357000008,1086.6573186000005,1087.4060859,5.0,0.7347497999999177,1081.2401326,,,,,,,,1080.1295690000006,1080.1405613999996,1080.6403498,1080.6239526000008,1087.4095106000004,1087.4095304000002,None,,,,,813125,001,male,23,2025-12-14_21h18.13.669,RSD11,,2025.2.3,60,2025-12-14 21h18.14.476515 +0100,
82,0,82,None,,,,,,,82,0,82,0,1087.4220262,,,,,,,,,,97.64348656937933,206.0,A,orientation,2,23,,,,,1087.9068805000006,1087.9230324,1088.5223411000006,1088.5223714000003,1089.0231005000005,1089.0231358,1089.5234696000007,1094.6307737000006,1095.6222230000003,1090.5221543000007,1090.5221620000011,1090.8415982999995,1094.630529,orientation,129.8055710922652,nan,nan,nan,1094.6306767999995,1094.630700900001,1094.6307362000007,1094.6307543000003,1095.6228307000001,1096.256579500001,4.0,0.6168134999988979,1088.5222685000008,,,,,,,,1087.409631300001,1087.4220262,1087.9230324,1087.9062551000006,1096.2596954,1096.2597103999997,None,,,,,813125,001,male,23,2025-12-14_21h18.13.669,RSD11,,2025.2.3,60,2025-12-14 21h18.14.476515 +0100,
83,0,83,None,,,,,,,83,0,83,0,1096.2717728999996,,,,,,,,,,89.32191050721624,52.0,O,orientation,2,24,,,,,1096.7558702000006,1096.771599900001,1097.3714610000006,1097.371485900001,1097.8715697999996,1097.8725455000003,1098.3715721999997,1102.642418200001,1103.6375181000003,1099.371152400001,1099.3711604,1099.7044740000001,1099.7045111999996,orientation,-23.131420814627468,nan,nan,,1099.7046456999997,1102.6423339000012,1102.6423715,1102.6423943999998,1103.6384818000006,1104.871384600001,1.0,1.2181799999998475,1097.371351400001,,,,,,,,1096.2598049000007,1096.2717728999996,1096.771599900001,1096.7551882999996,1104.8752413000002,1104.8752607999995,None,,,,,813125,001,male,23,2025-12-14_21h18.13.669,RSD11,,2025.2.3,60,2025-12-14 21h18.14.476515 +0100,
84,0,84,None,,,,,,,84,0,84,0,1104.8873846999995,,,,,,,,,,145.12684749468664,342.0,A,orientation,2,25,,,,,1105.3712957000007,1105.3873351000002,1105.9869811000008,1105.9870100999997,1106.4870425000008,1106.4879605999995,1106.9865307,1111.3480020999996,1112.3365479000004,1107.9868384000001,1107.9868465,1108.327229300001,1111.347659500001,orientation,-4.647970691387034,nan,nan,nan,1111.3478761000006,1111.3479035,1111.3479485000007,1111.3479800999994,1112.3371908999998,1113.153491000001,1.0,0.8016843999994308,1105.9868698999999,,,,,,,,1104.875368500001,1104.8873846999995,1105.3873351000002,1105.3705458000004,1113.1567128000006,1113.1567336000007,None,,,,,813125,001,male,23,2025-12-14_21h18.13.669,RSD11,,2025.2.3,60,2025-12-14 21h18.14.476515 +0100,
85,0,85,None,,,,,,,85,0,85,0,1113.169495600001,,,,,,,,,,57.147451866349655,116.0,A,color,2,26,,,,,1113.6536883999997,1113.6698741,1114.2695244000006,1114.2695628000001,1114.7694021999996,1114.7694382000009,1115.2693854000008,1120.0299914999996,1121.0188503000008,1116.2692936000003,1116.2693018999998,1116.5981694000002,1120.0296980000003,orientation,-93.57633437499736,nan,nan,nan,1120.0298820999997,1120.0299092000005,1120.0299486000004,1120.0299673999998,1121.0194828000003,1121.5355799999998,2.0,0.49982140000065556,1114.2694195000004,,,,,,,,1113.1568394999995,1113.169495600001,1113.6698741,1113.652896900001,1121.5388072999995,1121.5388413,None,,,,,813125,001,male,23,2025-12-14_21h18.13.669,RSD11,,2025.2.3,60,2025-12-14 21h18.14.476515 +0100,
86,0,86,None,,,,,,,86,0,86,0,1121.5517928000008,,,,,,,,,,148.22411975024434,78.0,C,color,2,27,,,,,1122.0360488000006,1122.0519057000001,1122.6519425999995,1122.6519693999999,1123.1517712000004,1123.1527165000007,1123.651722300001,1129.1620261999997,1130.1510646000006,1124.651667600001,1124.6516761000003,1124.9899638000006,1124.990001600001,NA,nan,80.02583631474613,nan,nan,1124.9900261000003,1124.9900448999997,1125.1612708000011,1129.1618959999996,1130.151667600001,1131.1846110999995,1.0,1.020953900000677,1122.651839,,,,,,,,1121.5389659000011,1121.5517928000008,1122.0519057000001,1122.0353192000002,1131.1878636000001,1131.187884500001,None,,,,,813125,001,male,23,2025-12-14_21h18.13.669,RSD11,,2025.2.3,60,2025-12-14 21h18.14.476515 +0100,
87,0,87,None,,,,,,,87,0,87,0,1131.2006730000012,,,,,,,,,,12.234382842915142,162.0,A,color,2,28,,,,,1131.6848243000004,1131.7008383000011,1132.3006941000003,1132.3007202999997,1132.8006017999996,1132.801448100001,1133.3006862000002,1136.7949470000003,1137.7835221999994,1134.3003093000007,1134.3003174999994,1134.6286282,1136.7945739000006,color,nan,177.1975484801332,15.197548480133207,0.9501407999996445,1136.7947772000007,1136.7948016999999,1136.7948512000003,1136.794871,1137.7841497999998,1138.983494,4.0,1.183749199999511,1132.3005864999996,,,,,,,,1131.1879988,1131.2006730000012,1131.7008383000011,1131.6841525,1138.9874842999998,1138.9875035999994,None,,,,,813125,001,male,23,2025-12-14_21h18.13.669,RSD11,,2025.2.3,60,2025-12-14 21h18.14.476515 +0100,
88,0,88,None,,,,,,,88,0,88,0,1138.9993931999998,,,,,,,,,,107.76116057192668,30.0,O,orientation,2,29,,,,,1139.483407400001,1139.4993264000004,1140.0998078000011,1140.0998350999998,1140.5996175,1140.6004333,1141.0994295,1144.801395800001,1145.7983901000007,1142.0992165999996,1142.099225,1142.435598,1142.435635400001,orientation,-54.05788812861766,nan,nan,,1142.4357944000003,1144.8012909999998,1144.8013331000002,1144.8013699000003,1145.7990549999995,1146.4995116999999,5.0,0.6846970999995392,1140.0996899000002,,,,,,,,1138.9876072000006,1138.9993931999998,1139.4993264000004,1139.482698400001,1146.5028903000002,1146.5029114999998,None,,,,,813125,001,male,23,2025-12-14_21h18.13.669,RSD11,,2025.2.3,60,2025-12-14 21h18.14.476515 +0100,
89,0,89,None,,,,,,,89,0,89,0,1146.5155135000005,,,,,,,,,,116.92109868785751,208.0,A,color,2,30,,,,,1146.999597,1147.0157875000004,1147.6155171999999,1147.6155469000005,1148.1153749000005,1148.1162695000003,1148.6152620000012,1152.2435341,1153.2314967000002,1149.6151809000003,1149.6151886999996,1150.2836884999997,1152.2430879000003,color,nan,204.94791785390146,-3.0520821460985417,0.7342915000008361,1152.2432998000004,1152.2433285000006,1152.2433718000011,1152.2433904999998,1153.2321238000004,1153.7322674999996,5.0,0.48733590000119875,1147.6153897000004,,,,,,,,1146.5030210000004,1146.5155135000005,1147.0157875000004,1146.998851100001,1153.7354742999996,1153.7354956,None,,,,,813125,001,male,23,2025-12-14_21h18.13.669,RSD11,,2025.2.3,60,2025-12-14 21h18.14.476515 +0100,
90,0,90,None,,,,,,,90,0,90,0,1153.7479215000003,,,,,,,,,,33.036081953513495,192.0,A,orientation,2,31,,,,,1154.232117200001,1154.2481222000006,1154.848074900001,1154.8481090000005,1155.3482691999998,1155.3483035000008,1155.8480467000009,1159.3905188999997,1160.3804605999994,1156.8469363000004,1156.846944500001,1157.1684994999996,1159.3902823999997,orientation,-139.59054318560604,nan,nan,nan,1159.3904184000003,1159.3904418000002,1159.3904791999994,1159.3904968999996,1160.3809615999999,1161.047105900001,2.0,0.6498520999994071,1154.8480185999997,,,,,,,,1153.7356043,1153.7479215000003,1154.2481222000006,1154.2313200000008,1161.050436900001,1161.0504576000003,None,,,,,813125,001,male,23,2025-12-14_21h18.13.669,RSD11,,2025.2.3,60,2025-12-14 21h18.14.476515 +0100,
91,0,91,None,,,,,,,91,0,91,0,1161.0634040000004,,,,,,,,,,154.13036279066867,170.0,A,color,2,32,,,,,1161.547653900001,1161.5638180000005,1162.1635975999998,1162.163646500001,1162.6635757000004,1162.6636018999998,1163.1633547000001,1168.1728174,1169.1629190000003,1164.1627804,1164.1627891000007,1164.4883449000008,1168.1725711,orientation,174.50767544287257,nan,nan,nan,1168.1727202000002,1168.1727468999998,1168.172780500001,1168.1727979000007,1169.163552,1170.1124311000003,5.0,0.9339663999999175,1162.1634205999999,,,,,,,,1161.0505623000008,1161.0634040000004,1161.5638180000005,1161.5470561000002,1170.115895500001,1170.115912700001,None,,,,,813125,001,male,23,2025-12-14_21h18.13.669,RSD11,,2025.2.3,60,2025-12-14 21h18.14.476515 +0100,
92,0,92,None,,,,,,,92,0,92,0,1170.1286753000004,,,,,,,,,,15.780710084269785,248.0,A,color,2,33,,,,,1170.6137049000008,1170.6298146999998,1171.2289228000009,1171.2289500999996,1171.7286363000003,1171.728694200001,1172.2285112000009,1176.8554614000004,1177.8452013999995,1173.2289951000002,1173.229002600001,1173.5576873999998,1176.8552256000003,orientation,58.45703038239094,nan,nan,nan,1176.8553663000002,1176.8553893999997,1176.8554251999994,1176.8554421999997,1177.8458155999997,1179.2283062999995,4.0,1.3709478000000672,1171.2287819000012,,,,,,,,1170.1160086,1170.1286753000004,1170.6298146999998,1170.6127465999998,1179.2316967000006,1179.2317144000008,None,,,,,813125,001,male,23,2025-12-14_21h18.13.669,RSD11,,2025.2.3,60,2025-12-14 21h18.14.476515 +0100,
93,0,93,None,,,,,,,93,0,93,0,1179.2446402999994,,,,,,,,,,30.443617962756324,164.0,A,orientation,2,34,,,,,1179.729107700001,1179.7447313000011,1180.3444006000009,1180.3444305000012,1180.8452880000004,1180.8453332999998,1181.3447424999995,1188.0871045000004,1189.0771289000004,1182.3448191999996,1182.3448267000003,1182.6771203000008,1188.0867312999999,color,nan,274.5247684728342,110.52476847283418,2.8976517999999487,1188.0869153000003,1188.0869411000003,1188.0869827000006,1188.0870001000003,1189.0777481000005,1189.7600746999997,1.0,0.6694815000009839,1180.3442732000003,,,,,,,,1179.231812600001,1179.2446402999994,1179.7447313000011,1179.7283907,1189.7633356000006,1189.7633814,None,,,,,813125,001,male,23,2025-12-14_21h18.13.669,RSD11,,2025.2.3,60,2025-12-14 21h18.14.476515 +0100,
94,0,94,None,,,,,,,94,0,94,0,1189.7763003,,,,,,,,,,120.11772331985681,168.0,O,orientation,2,35,,,,,1190.2615048999996,1190.276361100001,1190.8770270000005,1190.8770564999995,1191.376953500001,1191.3778057,1191.8768032000007,1195.2448413000002,1196.2429090999995,1192.8768959000008,1192.876903800001,1193.211085500001,1193.211118000001,orientation,-47.52949420483776,nan,nan,,1193.2114082999997,1195.244724600001,1195.244776200001,1195.2448032000011,1196.243523000001,1197.0599921000012,5.0,0.8032992999997077,1190.8769561999998,,,,,,,,1189.7634823000008,1189.7763003,1190.276361100001,1190.2605889000006,1197.063434900001,1197.0634542000007,None,,,,,813125,001,male,23,2025-12-14_21h18.13.669,RSD11,,2025.2.3,60,2025-12-14 21h18.14.476515 +0100,
95,0,95,None,,,,,,,95,0,95,0,1197.0760723000003,,,,,,,,,,26.352559608083087,16.0,C,color,2,36,,,,,1197.5605102000009,1197.5763303000003,1198.1757584000006,1198.1757892000005,1198.6755900000007,1198.6764954999999,1199.175418500001,1202.2030037000004,1203.2000809,1200.1761738999994,1200.1761821,1200.5063773000002,1200.5064158999994,NA,nan,27.712578971649453,nan,nan,1200.5064368000003,1200.5064628,1200.6730435000009,1202.2029096000006,1203.2006949000006,1203.9262271999996,5.0,0.7086991999985912,1198.1756482,,,,,,,,1197.0635585,1197.0760723000003,1197.5763303000003,1197.559742200001,1203.9299716000005,1203.9299908000012,None,,,,,813125,001,male,23,2025-12-14_21h18.13.669,RSD11,,2025.2.3,60,2025-12-14 21h18.14.476515 +0100,
96,0,96,None,,,,,,,96,0,96,0,1203.941573600001,,,,,,,,,,4.2858006642164215,10.0,C,color,2,37,,,,,1204.4260806000002,1204.4422512,1205.0415677,1205.0415940000003,1205.5418213000012,1205.5418578000008,1206.0421052000002,1211.7846972999996,1212.7741308000004,1207.0415028000007,1207.0415172000012,1207.3656866000001,1207.3657211999998,NA,nan,29.41024141699911,nan,nan,1207.3657404999994,1207.3657581999996,1207.530009,1211.7845804999997,1212.774744800001,1213.8571561999997,4.0,1.0682969999998022,1205.0415004000006,,,,,,,,1203.9300940000012,1203.941573600001,1204.4422512,1204.4254538999994,1213.8609464,1213.8609632000007,None,,,,,813125,001,male,23,2025-12-14_21h18.13.669,RSD11,,2025.2.3,60,2025-12-14 21h18.14.476515 +0100,
97,0,97,None,,,,,,,97,0,97,0,1213.8732156999995,,,,,,,,,,154.03981104162776,162.0,C,color,2,38,,,,,1214.3582803999998,1214.3747058000008,1214.9742340000012,1214.974259300001,1215.4740887999997,1215.474115000001,1215.973991500001,1218.6002609000006,1219.5899026999996,1216.9730715999995,1216.9730799000008,1217.2928112999998,1217.2928451999996,NA,nan,178.57299813248534,nan,nan,1217.292864000001,1217.292881700001,1217.4602539999996,1218.6000583000005,1219.5906909999994,1220.2404305,6.0,0.6357514000010269,1214.9741288999994,,,,,,,,1213.8610616999995,1213.8732156999995,1214.3747058000008,1214.3575738,1220.2437706,1220.2437922000008,None,,,,,813125,001,male,23,2025-12-14_21h18.13.669,RSD11,,2025.2.3,60,2025-12-14 21h18.14.476515 +0100,
98,0,98,None,,,,,,,98,0,98,0,1220.256690100001,,,,,,,,,,81.79764073967826,142.0,O,orientation,2,39,,,,,1220.7405190999998,1220.7563878,1221.3563023000006,1221.3563293000007,1221.8562898,1221.8573245000007,1222.3561659000006,1227.9263102000004,1228.9222107999994,1223.3558228000002,1223.355830800001,1224.0373827000003,1224.0374205000007,orientation,90.0,nan,nan,,1224.0376106000003,1227.9262170000002,1227.9262589999998,1227.9262854000008,1228.9229324999997,1229.7890877999998,4.0,0.8514605999989726,1221.3561967000005,,,,,,,,1220.2439066999996,1220.256690100001,1220.7563878,1220.7397793,1229.7926602999996,1229.7926829000007,None,,,,,813125,001,male,23,2025-12-14_21h18.13.669,RSD11,,2025.2.3,60,2025-12-14 21h18.14.476515 +0100,
99,0,99,None,,,,,,,99,0,99,0,1229.8051354,,,,,,,,,,67.76334345092909,144.0,C,color,2,40,,,,,1230.2896586000006,1230.3053058000005,1230.9052028000006,1230.905229,1231.405541600001,1231.4064405000008,1231.9050819000004,1235.3992359000003,1236.388119700001,1232.905209800001,1232.9052308999999,1233.243633,1233.2436684000004,NA,nan,154.01703395811245,nan,nan,1233.2436873999995,1233.2437074000009,1233.4177342000003,1235.3991096000009,1236.3888527,1237.5383299000005,5.0,1.1333049999993818,1230.9051012,,,,,,,,1229.7927971000008,1229.8051354,1230.3053058000005,1230.2888854000012,1237.5418731999998,1237.541897000001,None,,,,,813125,001,male,23,2025-12-14_21h18.13.669,RSD11,,2025.2.3,60,2025-12-14 21h18.14.476515 +0100,
100,0,100,None,,,,,,,100,0,100,0,1237.5544547000009,,,,,,,,,,53.03557931571158,60.0,A,orientation,2,41,,,,,1238.0384512,1238.0545473000002,1238.654249700001,1238.6542772000012,1239.1539739,1239.154823500001,1239.6542203999998,1243.9482122999998,1244.9370875000004,1240.6542735000003,1240.6542814000004,1240.9925475,1243.9478763000006,color,nan,49.41987113885471,-10.580128861145283,1.1842848999986018,1243.9480678,1243.9480958000004,1243.9481401000012,1243.9481593,1244.9377292000008,1245.7873462999996,4.0,0.8368437999997695,1238.6541465999999,,,,,,,,1237.5420052000009,1237.5544547000009,1238.0545473000002,1238.0377286000003,1245.7907988000006,1245.790819400001,None,,,,,813125,001,male,23,2025-12-14_21h18.13.669,RSD11,,2025.2.3,60,2025-12-14 21h18.14.476515 +0100,
101,0,101,None,,,,,,,101,0,101,0,1245.8035328000005,,,,,,,,,,126.4728599378145,242.0,O,orientation,2,42,,,,,1246.2875277000003,1246.3035309999996,1246.9035685,1246.9035944000007,1247.4033928000008,1247.4042823,1247.9031472000006,1255.4710886000012,1256.4681867,1248.9028048,1248.9028126000012,1249.2279689999996,1249.2280014999997,orientation,-35.83765295427829,nan,nan,,1249.2281479000012,1255.4709918000008,1255.4710296000012,1255.471055,1256.4689323000002,1256.9527020999994,5.0,0.4700009999996837,1246.9034518000008,,,,,,,,1245.7909311000003,1245.8035328000005,1246.3035309999996,1246.2868196,1256.9567165000008,1256.956736,None,,,,,813125,001,male,23,2025-12-14_21h18.13.669,RSD11,,2025.2.3,60,2025-12-14 21h18.14.476515 +0100,
