thisN,thisTrialN,thisRepN,Rest_wait.keys,Rest_wait.rt,Rest_wait.duration,practiceLoop.thisRepN,practiceLoop.thisTrialN,practiceLoop.thisN,practiceLoop.thisIndex,mainLoop.thisRepN,mainLoop.thisTrialN,mainLoop.thisN,mainLoop.thisIndex,thisRow.t,notes,INIT.started,INIT.stopped,Instr.started,key_instruct.started,Instr.stopped,key_instruct.keys,key_instruct.rt,key_instruct.duration,ori_stim,col_stim_hue,cueType,actualTask,Block_index,trial_in_block,Fixation.started,fix_2.started,fix_2.stopped,Fixation.stopped,encoding.started,grating.started,grating.stopped,encoding.stopped,Blank.started,Blank.stopped,Cue.started,Cue.stopped,ITI_2.started,ITI_2.stopped,Resp_ChoiceRouter.started,Resp_ChoiceRouter.stopped,resp_any.started,resp_any.stopped,resp_oriation.started,task,ori_angle,resp_oriation.stopped,resp_color.started,resp_color.stopped,col_resp_hue,slidertest.started,slidertest.stopped,confidence,rt_confidence,col_error,rt_reproduction,expstart.started,text_5.started,key_resp.started,expstart.stopped,key_resp.keys,key_resp.rt,key_resp.duration,Fix2.started,text_6.started,text_6.stopped,Fix2.stopped,blockbreak.started,blockbreak.stopped,mainLoop.Rest_wait.keys,text_4.started,Rest_wait.started,mainLoop.Rest_wait.rt,mainLoop.Rest_wait.duration,participant,session,Gender,Age,date,expName,expVersion,psychopyVersion,frameRate,expStart,
,,,,,,,,,,,,,,,,0.011987400008365512,0.01204990001861006,,,,,,,,,,,,,,,,,,,,,,,,,,,,,,,,,,,,,,,,,,,,,,,,,,,,,,,,,,,,,,KL,001,f,24,2025-12-14_10h51.30.885,RSD11,,2025.2.0,60,2025-12-14 10h51.31.552039 +0100,
,,,,,,,,,,,,,,,,,,0.012075400009052828,1.0156263000098988,3.1885096000041813,space,2.1515174999949522,None,,,,,,,,,,,,,,,,,,,,,,,,,,,,,,,,,,,,,,,,,,,,,,,,,,,,,,,,KL,001,f,24,2025-12-14_10h51.30.885,RSD11,,2025.2.0,60,2025-12-14 10h51.31.552039 +0100,
0,0,0,,,,0,0,0,0,,,,,3.198136999999406,,,,,,,,,,57.99390912267193,234.0,O,orientation,0,1,3.188871399994241,3.198136999999406,3.698327899997821,3.6815247000195086,3.687292799993884,3.698327899997821,4.298106100002769,4.29817340002046,4.298196300020209,4.7992080000112765,4.8065390000119805,5.299248700001044,10.883150300011039,11.382096700021066,5.799333100003423,5.799377999996068,6.211929500015685,6.211969199997839,6.212087399995653,orientation,70.9612910458424,10.88286720000906,10.883042800007388,10.883086200017715,nan,11.384299800003646,14.18095650000032,4.0,2.7809420000121463,nan,,,,,,,,,,,,,,,,,,,,KL,001,f,24,2025-12-14_10h51.30.885,RSD11,,2025.2.0,60,2025-12-14 10h51.31.552039 +0100,
1,0,1,,,,1,0,1,0,,,,,14.197024199995212,,,,,,,,,,88.75598931672408,4.0,O,orientation,0,2,14.181189499999164,14.197024199995212,14.696828300016932,14.680260199995246,14.681380699999863,14.696828300016932,,15.281589200021699,15.281716800003778,15.781178400007775,15.78126920000068,16.281210999994073,21.43209270000807,21.930291299999226,16.78122240002267,16.781252500019036,17.183711499994388,17.183745000016643,17.183882300014375,orientation,-47.38594403038881,21.43182810000144,21.431948300014483,21.432005000009667,nan,21.9324775999994,22.913100000005215,5.0,0.9649638000119012,nan,,,,,,,,,,,,,,,,,,,,KL,001,f,24,2025-12-14_10h51.30.885,RSD11,,2025.2.0,60,2025-12-14 10h51.31.552039 +0100,
2,0,2,,,,2,0,2,0,,,,,22.929162900021765,,,,,,,,,,133.1860420665876,350.0,A,color,0,3,22.913306500006,22.929162900021765,,23.4136400000134,23.416455400001723,23.429939900001045,,24.013700400013477,24.013807900017127,24.513543900015065,24.518451700016158,25.013344700011658,31.023158500000136,31.511412399995606,25.513518899999326,25.513550400006352,25.92832940001972,31.02292899999884,31.023036900005536,orientation,-7.125016348901798,31.023065700021107,31.023111999995308,31.02313210000284,nan,31.512367699993774,36.41154160001315,4.0,4.883370399998967,nan,nan,,,,,,,,,,,,,,,,,,,KL,001,f,24,2025-12-14_10h51.30.885,RSD11,,2025.2.0,60,2025-12-14 10h51.31.552039 +0100,
3,0,3,,,,3,0,3,0,,,,,36.4280715000059,,,,,,,,,,144.65628285405228,232.0,A,orientation,0,4,36.411830400000326,36.4280715000059,,36.91193140001269,36.91500060001272,36.92821620000177,37.52765510001336,37.51198250000016,37.51204289999441,38.010682799998904,38.01071480000974,38.511976900015725,42.37071920000017,42.860897000005934,39.01148960000137,39.011511300021084,39.42134650002117,42.37041550001595,42.370517300005304,color,nan,42.3705437000026,42.370588300022064,42.370609900011914,224.43552782469303,42.86232050001854,44.343905800022185,6.0,1.4658181999984663,-7.564472175306975,1.7164572000037879,,,,,,,,,,,,,,,,,,,KL,001,f,24,2025-12-14_10h51.30.885,RSD11,,2025.2.0,60,2025-12-14 10h51.31.552039 +0100,
4,0,4,,,,4,0,4,0,,,,,44.36017630001879,,,,,,,,,,176.14304713651086,310.0,C,color,0,5,44.34408870001789,44.36017630001879,44.86071500001708,44.84424609999405,44.84666589999688,44.86071500001708,45.46016670000972,45.44429840001976,45.44435610002256,45.943954700022005,45.94826220002142,46.44394180001109,51.936096300021745,52.42622389999451,46.943776200001594,46.94379940000363,47.355654200015124,47.35569700002088,47.35572680001496,NA,nan,47.35574769999948,47.560281100013526,51.93600850002258,325.18862800845346,52.42800830001943,53.259622000012314,3.0,0.8156673999910709,nan,nan,,,,,,,,,,,,,,,,,,,KL,001,f,24,2025-12-14_10h51.30.885,RSD11,,2025.2.0,60,2025-12-14 10h51.31.552039 +0100,
5,0,5,,,,5,0,5,0,,,,,53.2757769000018,,,,,,,,,,177.57760212958803,116.0,A,orientation,0,6,53.259835500008194,53.2757769000018,53.77597849999438,53.75986350001767,53.76174960000208,53.77597849999438,54.37597819999792,54.360001799999736,54.36006860001362,54.8599266000092,54.86355569999432,55.359844599995995,58.56798049999634,59.059390800015535,55.85959219999495,55.85962860001018,56.2761354999966,58.56775479999487,58.567849600018235,orientation,11.788183299107622,58.567877199995564,58.56792260002112,58.56794910001918,nan,59.061561100010294,60.82531889999518,4.0,1.7477570000046398,nan,nan,,,,,,,,,,,,,,,,,,,KL,001,f,24,2025-12-14_10h51.30.885,RSD11,,2025.2.0,60,2025-12-14 10h51.31.552039 +0100,
6,0,6,,,,6,0,6,0,,,,,60.84137430001283,,,,,,,,,,45.192300949770065,20.0,C,color,0,7,60.82550520001678,60.84137430001283,61.34155690000625,61.32549300001119,61.32807990000583,61.34155690000625,61.94131510000443,61.925085700000636,61.92517260002205,62.424199100001715,62.42572570001357,62.92407690000255,66.71757830001297,67.20827440000721,63.44102510000812,63.44104880001396,64.02631230000407,64.02635580001515,64.02638610001304,NA,nan,64.02640699999756,64.2765236000123,66.7174877000216,14.458217847844445,67.21055700001307,69.25703410001006,4.0,2.0304451000120025,nan,nan,,,,,,,,,,,,,,,,,,,KL,001,f,24,2025-12-14_10h51.30.885,RSD11,,2025.2.0,60,2025-12-14 10h51.31.552039 +0100,
7,0,7,,,,7,0,7,0,,,,,69.27335279999534,,,,,,,,,,175.23863332685792,166.0,A,color,0,8,69.25722030000179,69.27335279999534,69.77326089999406,69.75655550000374,69.75731960000121,69.77326089999406,70.37302369999816,70.35640899999999,70.35643129999517,70.85625300000538,70.85713129999931,71.35619600000791,74.90311290000682,75.38905810000142,71.85614859999623,71.85615659999894,72.27363189999596,74.90289160000975,74.90299610001966,orientation,-1.0050860052541812,74.90302250001696,74.90306579999742,74.90308700001333,nan,75.3897029000218,76.57281820001663,4.0,1.166757700004382,nan,nan,,,,,,,,,,,,,,,,,,,KL,001,f,24,2025-12-14_10h51.30.885,RSD11,,2025.2.0,60,2025-12-14 10h51.31.552039 +0100,
8,0,8,,,,8,0,8,0,,,,,76.58891900000162,,,,,,,,,,137.17371552272965,226.0,A,color,0,9,76.57298140000785,76.58891900000162,77.08917330001714,77.07315969999763,77.07637220001197,77.08917330001714,77.68869690000429,77.67232350000995,77.67235420001089,78.1721547000052,78.17218950000824,78.67210930000874,82.44994039999438,82.93882730000769,79.1723037000047,79.17231650001486,79.6065479000099,82.44961430001422,82.44978990001255,orientation,-3.972495940750659,82.44983190001221,82.44988230001763,82.44990599999437,nan,82.94121900000027,84.15525440001511,4.0,1.1981305000081193,nan,nan,,,,,,,,,,,,,,,,,,,KL,001,f,24,2025-12-14_10h51.30.885,RSD11,,2025.2.0,60,2025-12-14 10h51.31.552039 +0100,
9,0,9,,,,9,0,9,0,,,,,84.17146270000376,,,,,,,,,,110.7006780750267,166.0,O,orientation,0,10,84.15543199999956,84.17146270000376,84.67133569999714,84.65488750001532,84.65615049999906,84.67133569999714,85.27137160001439,85.25518150001881,85.25520310000866,85.75510760000907,85.75820179999573,86.25467429999844,91.02125119999982,91.5205315000203,86.75452990000485,86.75453760000528,87.25862030001008,87.25865980001981,87.25881680002203,orientation,-52.79874244460197,91.0211470000213,91.02119260001928,91.02121619999525,nan,91.5211752000032,92.68752490001498,4.0,1.1499841999902856,nan,,,,,,,,,,,,,,,,,,,,KL,001,f,24,2025-12-14_10h51.30.885,RSD11,,2025.2.0,60,2025-12-14 10h51.31.552039 +0100,
10,0,10,,,,10,0,10,0,,,,,92.703531200008,,,,,,,,,,93.56558544964551,356.0,A,color,0,11,92.68771210001432,92.703531200008,93.20344340000884,93.18706620001467,93.18811980000464,93.20344340000884,93.80328200000804,93.78706180001609,93.78708979999647,94.28684680000879,94.28832290001446,94.78678540000692,100.28602570001385,100.78591790000792,95.2867155999993,95.28672580001876,95.73502910000389,100.28574010002194,100.28588229999878,orientation,-49.610649318660606,100.28591710000183,100.28596989999642,100.2859961000213,nan,100.78678100000252,102.75301990000298,4.0,1.9500195999862626,nan,nan,,,,,,,,,,,,,,,,,,,KL,001,f,24,2025-12-14_10h51.30.885,RSD11,,2025.2.0,60,2025-12-14 10h51.31.552039 +0100,
11,0,11,,,,11,0,11,0,,,,,102.7690288000158,,,,,,,,,,35.36009156911567,302.0,A,orientation,0,12,102.75323260002187,102.7690288000158,103.2690067999938,103.25239989999682,103.25348579999991,103.2690067999938,103.86883799999487,103.8524313000089,103.852452000021,104.35221700000693,104.35225429999991,104.85221800001455,107.94830200000433,108.4355994000216,105.35211160001927,105.35212280001724,105.817343600007,107.94788910000352,107.94806840000092,color,nan,107.94811369999661,107.9481880000094,107.94822740001837,309.90788487550105,108.43648540001595,109.85192470002221,4.0,1.3991674999997485,7.907884875501054,0.8020393000042532,,,,,,,,,,,,,,,,,,,KL,001,f,24,2025-12-14_10h51.30.885,RSD11,,2025.2.0,60,2025-12-14 10h51.31.552039 +0100,
12,0,12,,,,12,0,12,0,,,,,109.86794430000009,,,,,,,,,,179.2730307488007,62.0,C,color,0,13,109.85211020000861,109.86794430000009,110.36814120001509,110.3519237000146,110.3529378999956,110.36814120001509,110.96787560000666,110.9515341000224,110.95155470000464,111.45168140000897,111.45378700000583,111.95128940002178,115.32849400001578,115.8174915999989,112.45126590001746,112.45127439999487,112.95957679999992,112.95962170002167,112.95964990000357,NA,nan,112.95967350000865,113.20922540000174,115.32841539999936,48.10166402986846,115.81808070000261,118.76750460002222,4.0,2.933065599994734,nan,nan,,,,,,,,,,,,,,,,,,,KL,001,f,24,2025-12-14_10h51.30.885,RSD11,,2025.2.0,60,2025-12-14 10h51.31.552039 +0100,
13,0,13,,,,13,0,13,0,,,,,118.78374990000157,,,,,,,,,,47.25122570310386,134.0,A,color,0,14,118.7677537999989,118.78374990000157,119.28357630001847,119.26702050000313,119.26815139999962,119.28357630001847,119.88358990001143,119.86713590001455,119.8671566999983,120.36682150000706,120.36846779999905,120.86680160000105,128.00436560000526,128.49903310000082,121.36699239999871,121.36700290002045,122.02247330002137,128.0041545999993,128.0042478000105,orientation,73.75236842721435,128.00428029999603,128.00432219999493,128.00434210000094,nan,128.49999240000034,129.79927509999834,4.0,1.2834743999992497,nan,nan,,,,,,,,,,,,,,,,,,,KL,001,f,24,2025-12-14_10h51.30.885,RSD11,,2025.2.0,60,2025-12-14 10h51.31.552039 +0100,
14,0,14,,,,14,0,14,0,,,,,129.81570470001316,,,,,,,,,,114.7123055532709,88.0,O,orientation,0,15,129.79944810000597,129.81570470001316,130.31558320001932,130.29880089999642,130.29995300000883,130.31558320001932,130.91538760002004,130.89911810000194,130.89914890000364,131.39864920001128,131.4000481000112,131.89867490000324,135.5992741000082,136.09814690001076,132.3985472000204,132.39856410000357,132.83239470000262,132.83243260000017,132.83257410000078,orientation,-30.650667957052864,135.5991222000157,135.59918260000995,135.5992186999938,nan,136.09873399999924,137.24845710000955,4.0,1.133317400002852,nan,,,,,,,,,,,,,,,,,,,,KL,001,f,24,2025-12-14_10h51.30.885,RSD11,,2025.2.0,60,2025-12-14 10h51.31.552039 +0100,
15,0,15,,,,15,0,15,0,,,,,137.2646703000064,,,,,,,,,,138.59244321743444,102.0,A,color,0,16,137.2487778000068,137.2646703000064,137.7646338000195,137.7479188000143,137.74869670000044,137.7646338000195,138.36448600000585,138.34782660001656,138.34784750000108,138.8477996000147,138.84951020000153,139.34783280000556,143.34090939999442,143.83056080000824,139.8476182000013,139.84763600002043,140.2573698000051,143.34069790001377,143.34079519999796,orientation,-14.839939161912914,143.34082480001962,143.3408660000132,143.34088530001463,nan,143.83153480000328,144.56421700000647,4.0,0.7162774999742396,nan,nan,,,,,,,,,,,,,,,,,,,KL,001,f,24,2025-12-14_10h51.30.885,RSD11,,2025.2.0,60,2025-12-14 10h51.31.552039 +0100,
16,0,16,,,,16,0,16,0,,,,,144.58052310001221,,,,,,,,,,139.58078596767425,224.0,A,color,0,17,144.56439509999473,144.58052310001221,145.08053649999783,145.0637437000114,145.06463589999476,145.08053649999783,145.68028010000126,145.66375300000072,145.6637727000052,146.16355270001804,146.16357830000925,146.6635888000019,150.9073658999987,151.39633320001303,147.16353770002024,147.16355080000358,147.5776623999991,150.90715569999884,150.90725170000223,orientation,-2.9108378261677537,150.90728290000698,150.90732329999446,150.90734200002044,nan,151.3971956000023,152.32986670001992,4.0,0.9162696999846958,nan,nan,,,,,,,,,,,,,,,,,,,KL,001,f,24,2025-12-14_10h51.30.885,RSD11,,2025.2.0,60,2025-12-14 10h51.31.552039 +0100,
17,0,17,,,,17,0,17,0,,,,,152.346079800016,,,,,,,,,,154.62342995304508,356.0,C,color,0,18,152.3300380000146,152.346079800016,152.84610429999884,152.82947430000058,152.83025840000482,152.84610429999884,153.44597359999898,153.42966389999492,153.42969250000897,153.92964570000186,153.93157760001486,154.42926570001873,156.61160709999967,157.11237200000323,154.9291976999957,154.92920820001746,155.43455990002258,155.4345988999994,155.43462420001742,NA,nan,155.43464490000042,155.65371210000012,156.61152289999882,2.746400677344225,157.11309460000484,158.3291175000195,5.0,1.1999359999899752,nan,nan,,,,,,,,,,,,,,,,,,,KL,001,f,24,2025-12-14_10h51.30.885,RSD11,,2025.2.0,60,2025-12-14 10h51.31.552039 +0100,
18,0,18,,,,18,0,18,0,,,,,158.34537900000578,,,,,,,,,,2.5170132678420676,294.0,A,color,0,19,158.3292802000069,158.34537900000578,158.84519900000305,158.82869690001826,158.82985890001873,158.84519900000305,159.44505810001283,159.42867370002205,159.4287038000184,159.92898320002132,159.92995770002017,160.42886440001894,168.6568399000098,169.1440213000169,160.9285812000162,160.92859470000258,161.34496149999904,168.65663440001663,168.6567234999966,orientation,26.13100054493858,168.6567544999998,168.6567954000202,168.6568158000009,nan,169.1446275000053,170.34421720000682,4.0,1.1833459000044968,nan,nan,,,,,,,,,,,,,,,,,,,KL,001,f,24,2025-12-14_10h51.30.885,RSD11,,2025.2.0,60,2025-12-14 10h51.31.552039 +0100,
19,0,19,,,,19,0,19,0,,,,,170.36060400001588,,,,,,,,,,71.84609702962167,74.0,A,color,0,20,170.3444473000127,170.36060400001588,170.86047660000622,170.84371000001556,170.84581300002174,170.86047660000622,171.46026930000517,171.4436740000092,171.44369380001444,171.94361340001342,171.94365500001004,172.44394130000728,178.93622490001144,179.42629860001034,172.94351420001476,172.94352220001747,173.36793350000517,178.93600620000507,178.9361082999967,orientation,82.00407955395984,178.93614020000678,178.93618210000568,178.93620080000255,nan,179.42693139999756,180.226416599995,4.0,0.7831927000079304,nan,nan,,,,,,,,,,,,,,,,,,,KL,001,f,24,2025-12-14_10h51.30.885,RSD11,,2025.2.0,60,2025-12-14 10h51.31.552039 +0100,
20,0,20,,,,20,0,20,0,,,,,180.24276920000557,,,,,,,,,,138.35992358857803,232.0,O,orientation,0,21,180.22659229999408,180.24276920000557,180.74257240002044,180.72592180001084,180.72696309999446,180.74257240002044,181.3423718000122,181.3259168000077,181.3259455000225,181.82579120001174,181.8273874000006,182.32604189999984,186.5425465000153,187.0417773000081,182.8257506999944,182.82576530001825,183.2782247000141,183.27826799999457,183.27842840002268,orientation,-29.054604099077146,186.5424178999965,186.54247750001377,186.54250890002004,nan,187.04280200001085,188.44218159999582,4.0,1.3835333999886643,nan,,,,,,,,,,,,,,,,,,,,KL,001,f,24,2025-12-14_10h51.30.885,RSD11,,2025.2.0,60,2025-12-14 10h51.31.552039 +0100,
21,0,21,,,,21,0,21,0,,,,,188.45843400000012,,,,,,,,,,118.46081058820909,214.0,A,orientation,0,22,188.44237639999483,188.45843400000012,188.95822610001778,188.94175930001074,188.9430127000087,188.95822610001778,189.5583922000078,189.5420790000062,189.54213119999622,190.04150260001188,190.04264810000313,190.5416371000174,194.4915833999985,194.9907751000137,191.04135800001677,191.0413714000024,191.61034880002262,194.49127970001427,194.4913873000187,color,nan,194.49141479999525,194.49146109999856,194.4914923000033,213.5110187978408,194.99154370001634,196.007643799996,4.0,0.9995809999818448,-0.48898120215920926,1.6138591000053566,,,,,,,,,,,,,,,,,,,KL,001,f,24,2025-12-14_10h51.30.885,RSD11,,2025.2.0,60,2025-12-14 10h51.31.552039 +0100,
22,0,22,,,,22,0,22,0,,,,,196.02377030000207,,,,,,,,,,146.4377621281922,296.0,C,color,0,23,196.00780780002242,196.02377030000207,196.52371550002135,196.50723240000661,196.50827920000302,196.52371550002135,197.1236241000006,197.10727589999442,197.10730319999857,197.6071225000196,197.6084568000224,198.1072570999968,201.4039444999944,201.88993790000677,198.6071867000137,198.60720359999686,199.04886890001944,199.04891780001344,199.0489430000016,NA,nan,199.0489637000137,199.261885600019,201.4038492999971,337.95551896792676,201.89084989999537,202.77364080000552,4.0,0.8667676999757532,nan,nan,,,,,,,,,,,,,,,,,,,KL,001,f,24,2025-12-14_10h51.30.885,RSD11,,2025.2.0,60,2025-12-14 10h51.31.552039 +0100,
23,0,23,,,,23,0,23,0,,,,,202.78973109999788,,,,,,,,,,11.109540184893032,198.0,C,color,0,24,202.77383340001688,202.78973109999788,,203.27405850001378,203.27629760000855,203.28999049999402,203.8898460000055,203.8732898000162,203.87333010000293,204.37287000002107,204.3729033000127,204.87296000000788,207.6898019000073,208.18922530001146,205.373230600002,205.37324509999598,205.93866670000716,205.93871720001334,205.93875270002172,NA,nan,205.93878190001124,206.24762070001452,207.6897033000132,194.67639313745,208.19016840000404,209.28944019999471,4.0,1.0830210999993142,nan,nan,,,,,,,,,,,,,,,,,,,KL,001,f,24,2025-12-14_10h51.30.885,RSD11,,2025.2.0,60,2025-12-14 10h51.31.552039 +0100,
24,0,24,,,,24,0,24,0,,,,,209.30552690001787,,,,,,,,,,12.912461936888258,340.0,A,orientation,0,25,209.2896102000086,209.30552690001787,,209.7899282000144,209.79283570000553,209.80620039999485,,210.38986789999763,210.39014760000282,210.88984220000566,210.89276350001455,211.38974780001445,216.21585360000608,216.70556570001645,211.88943239999935,211.88947399999597,212.37373140000273,216.21566280000843,216.2157519000175,orientation,69.14554196042165,216.21577450001496,216.2158141999971,216.21583410000312,nan,216.70749810000416,217.43873910000548,4.0,0.7153121000155807,nan,nan,,,,,,,,,,,,,,,,,,,KL,001,f,24,2025-12-14_10h51.30.885,RSD11,,2025.2.0,60,2025-12-14 10h51.31.552039 +0100,
25,0,25,,,,25,0,25,0,,,,,217.45473110000603,,,,,,,,,,26.006400167770728,110.0,O,orientation,0,26,217.43898100001388,217.45473110000603,217.95461129999603,217.9388746000186,217.94060669999453,217.95461129999603,218.55476860000635,218.53816280001774,218.53819560000557,219.03863970001112,219.04114099999424,219.5376659000176,223.92223690001993,224.4210766000033,220.05418160001864,220.05419260001509,220.64937570001348,220.64941260000342,220.64954440001748,orientation,43.344513460880705,223.9220610000193,223.9221358000068,223.92217550001806,nan,224.42299049999565,225.25472090000403,4.0,0.8155479999841191,nan,,,,,,,,,,,,,,,,,,,,KL,001,f,24,2025-12-14_10h51.30.885,RSD11,,2025.2.0,60,2025-12-14 10h51.31.552039 +0100,
26,0,26,,,,26,0,26,0,,,,,225.27052079999703,,,,,,,,,,1.0480156103102356,312.0,C,color,0,27,225.2549259000225,225.27052079999703,225.770757100021,225.75425640001777,225.75795319999452,225.770757100021,226.37049359999946,226.35436590001336,226.35444510000525,226.85469350000494,226.8577329000109,227.35441060000448,230.5304531000147,231.02048500001547,227.8546452000155,227.85468600000604,228.26677640000707,228.2668146000069,228.26683960002265,NA,nan,228.2668625000224,228.4709131999989,230.53035330001148,329.44214683188375,231.0218515000015,231.8200441999943,4.0,0.7821810000168625,nan,nan,,,,,,,,,,,,,,,,,,,KL,001,f,24,2025-12-14_10h51.30.885,RSD11,,2025.2.0,60,2025-12-14 10h51.31.552039 +0100,
27,0,27,,,,27,0,27,0,,,,,231.8361419000139,,,,,,,,,,150.55069154623226,188.0,O,orientation,0,28,231.8202605000115,231.8361419000139,,232.32044670000323,232.3226152000134,232.33655730000464,,232.9208348999964,232.920966900012,233.41978160000872,233.42247200000565,233.91997720001382,236.4379057000042,236.93697249999968,234.42038200001116,234.42040590001852,234.82970070000738,234.82974169999943,234.82989930000622,orientation,173.3455749539934,236.43771170001128,236.43779450000147,236.4378402000002,nan,236.939131000021,237.8028411999985,4.0,0.8475943999947049,nan,,,,,,,,,,,,,,,,,,,,KL,001,f,24,2025-12-14_10h51.30.885,RSD11,,2025.2.0,60,2025-12-14 10h51.31.552039 +0100,
28,0,28,,,,28,0,28,0,,,,,237.81879780002055,,,,,,,,,,66.29284885278092,148.0,A,orientation,0,29,237.80305109999608,237.81879780002055,,238.30336170000373,238.30635339999571,238.319619899994,,238.90316980000352,238.90327189999516,239.4030888999987,239.40561710001202,239.90308469999582,245.827789700008,246.3190732000221,240.4026334999944,240.4026747000171,240.81152780001867,245.82756860001246,245.82766569999512,orientation,-108.43494882292202,245.82769410000765,245.82773810002254,245.82775910000782,nan,246.32160320002004,247.1181223000167,4.0,0.7803825000009965,nan,nan,,,,,,,,,,,,,,,,,,,KL,001,f,24,2025-12-14_10h51.30.885,RSD11,,2025.2.0,60,2025-12-14 10h51.31.552039 +0100,
29,0,29,,,,29,0,29,0,,,,,247.13453700000537,,,,,,,,,,52.203551361409154,276.0,C,color,0,30,247.11837860001833,247.13453700000537,247.63466559999506,247.61830920001375,247.62070319999475,247.63466559999506,,248.21869400001015,248.2187831000192,248.71848229999887,248.7217318000039,249.2184005000163,253.1045945000078,253.60000440001022,249.7178714000038,249.7178789000027,250.20376620002207,250.2038012999983,250.20382399999653,NA,nan,250.2038414000126,250.39693459999398,253.1044835000066,328.63511270901733,253.6007395000197,254.33372450000024,4.0,0.7166756000078749,nan,nan,,,,,,,,,,,,,,,,,,,KL,001,f,24,2025-12-14_10h51.30.885,RSD11,,2025.2.0,60,2025-12-14 10h51.31.552039 +0100,
,,,,,,,,,,,,,,,,,,,,,,,,,,,,,,,,,,,,,,,,,,,,,,,,,,,,,,,,,,,,,254.3776662000164,254.3806503000087,254.3806503000087,364.58728970002267,space,110.19489410001552,None,,,,,,,,,,,,KL,001,f,24,2025-12-14_10h51.30.885,RSD11,,2025.2.0,60,2025-12-14 10h51.31.552039 +0100,
0,0,0,None,,,,,,,0,0,0,0,364.6034307999944,,,,,,,,,,22.512104064641782,110.0,O,orientation,1,1,,,,,365.0901758999971,365.1034781000053,,365.70265859999927,365.7026937000046,366.2030947000021,366.20539800002007,366.70327410000027,368.5365285000007,369.0361083000025,367.2035232000053,367.20355540001765,367.6238471000106,367.6238843000028,367.62402010001824,orientation,48.286101979075305,368.5364012000209,368.53645519999554,368.5364887000178,nan,369.0375645000022,370.3028397000162,4.0,1.249061000009533,nan,,,,,,,,,364.58989590001875,364.6034307999944,365.1034781000053,365.0873164999939,370.30900910001947,370.30903030000627,None,,,,,KL,001,f,24,2025-12-14_10h51.30.885,RSD11,,2025.2.0,60,2025-12-14 10h51.31.552039 +0100,
1,0,1,None,,,,,,,1,0,1,0,370.3186135000142,,,,,,,,,,91.48617459023386,78.0,A,orientation,1,2,,,,,370.8029848000151,370.8185408000136,371.4184243000054,371.4185568999965,371.4185811000061,371.9188303000119,371.9223575000069,372.41858769999817,376.26493770000525,376.75129200000083,372.918330000015,372.91833810001845,373.35035980000976,376.264705700014,376.2648160000099,orientation,-69.30454926593673,376.26485020000837,376.2648942999949,376.26491290002014,nan,376.75217859999975,377.43480519999866,4.0,0.666471200005617,nan,nan,,,,,,,,370.309136099997,370.3186135000142,370.8185408000136,370.80214000001433,377.43845899999724,377.4384782999987,None,,,,,KL,001,f,24,2025-12-14_10h51.30.885,RSD11,,2025.2.0,60,2025-12-14 10h51.31.552039 +0100,
2,0,2,None,,,,,,,2,0,2,0,377.4510617000051,,,,,,,,,,20.387347416837585,40.0,A,color,1,3,,,,,377.93511130000115,377.9510358000116,378.5509598000208,378.5510826999962,378.5511158000154,379.05120360001456,379.05126180002117,379.5509207000141,383.2106609000184,383.70130470002186,380.0509272000054,380.05094149999786,380.48469720000867,383.21044190000976,383.21053450001637,orientation,53.24632081446853,383.2105628999998,383.2106089000008,383.2106307000213,nan,383.70274659999995,384.13454580001417,4.0,0.4158975000027567,nan,nan,,,,,,,,377.4386019000085,377.4510617000051,377.9510358000116,377.9342993000173,384.137919300003,384.13793540000916,None,,,,,KL,001,f,24,2025-12-14_10h51.30.885,RSD11,,2025.2.0,60,2025-12-14 10h51.31.552039 +0100,
3,0,3,None,,,,,,,3,0,3,0,384.1510133999982,,,,,,,,,,48.689949468743656,262.0,A,orientation,1,4,,,,,384.6372184000211,384.65070280001964,385.2507061000215,385.2349502000143,385.23503510002047,385.7509571000119,385.751085099997,386.2511630000081,389.61045999999624,390.1002156000177,386.7512906000193,386.7513511000143,387.16152370002237,389.6101688000199,389.61027550001745,color,nan,389.6103041000024,389.61035000000265,389.61037170002237,278.18638502712645,390.1016065000149,390.9502782000054,4.0,0.8327319000090938,16.186385027126448,0.667123499995796,,,,,,,,384.1380371999985,384.1510133999982,384.65070280001964,384.6347258000169,390.9541742000147,390.9541908999963,None,,,,,KL,001,f,24,2025-12-14_10h51.30.885,RSD11,,2025.2.0,60,2025-12-14 10h51.31.552039 +0100,
4,0,4,None,,,,,,,4,0,4,0,390.9666128999961,,,,,,,,,,125.98886179096664,178.0,A,orientation,1,5,,,,,391.4521207000071,391.4667878000182,392.0666244000022,392.0668882000027,392.0669639999978,392.5669106999994,392.5670514999947,393.06660790002206,396.19295100000454,396.68320860000676,393.5671246999991,393.56716780000716,394.07178349999595,396.1926600000006,396.1927661000227,color,nan,396.19279470000765,396.1928417000163,396.19286350000766,173.31451846368287,396.6849766999949,397.3325288000051,4.0,0.6319416999758687,-4.685481536317127,0.7163295999926049,,,,,,,,390.95428649999667,390.9666128999961,391.4667878000182,391.4501520000049,397.3362771999964,397.3362940000079,None,,,,,KL,001,f,24,2025-12-14_10h51.30.885,RSD11,,2025.2.0,60,2025-12-14 10h51.31.552039 +0100,
5,0,5,None,,,,,,,5,0,5,0,397.349171400012,,,,,,,,,,136.3967691374733,286.0,O,orientation,1,6,,,,,397.83605220000027,397.8489118000143,398.44926650001435,398.4330329000077,398.43310180000844,398.9492304000014,398.9519582000212,399.44937570000184,403.2169602000213,403.71523329999764,399.9490330000117,399.9490754000144,400.35554930000217,400.3555852000136,400.3557368000038,orientation,-30.677280021796452,403.21677090000594,403.2168543000007,403.2168981000141,nan,403.71667330001947,404.2651163999981,4.0,0.5326855000166688,nan,,,,,,,,,397.3363914999936,397.349171400012,397.8489118000143,397.83325650001643,404.27104419999523,404.27106040000217,None,,,,,KL,001,f,24,2025-12-14_10h51.30.885,RSD11,,2025.2.0,60,2025-12-14 10h51.31.552039 +0100,
6,0,6,None,,,,,,,6,0,6,0,404.2812702000083,,,,,,,,,,119.59552811032248,210.0,A,orientation,1,7,,,,,404.76860100001795,404.781856400019,405.3816490000172,405.38202640000964,405.3821349000209,405.8820241000212,405.8854122000048,406.3818795999978,409.8245528000116,410.31461210001726,406.8818047000095,406.8818480000191,407.28745669999626,409.8242581000086,409.82436430000234,color,nan,409.82439590001013,409.82444090000354,409.8244631999987,212.18894935457763,410.3163824999938,410.9142296000209,4.0,0.5817027000011876,2.1889493545776304,1.2502129999920726,,,,,,,,404.2711573000124,404.2812702000083,404.781856400019,404.76580310001737,410.9199358000187,410.9199550000194,None,,,,,KL,001,f,24,2025-12-14_10h51.30.885,RSD11,,2025.2.0,60,2025-12-14 10h51.31.552039 +0100,
7,0,7,None,,,,,,,7,0,7,0,410.9303230000078,,,,,,,,,,175.3650456908118,48.0,C,color,1,8,,,,,411.41737350000767,411.4310696000175,412.03103510002256,412.0314078000083,412.0315155000135,412.5310272000206,412.53378620001604,413.0310274999938,415.7906575000088,416.2808544000145,413.53056740001193,413.5305806999968,413.9395766000089,413.93962610000744,413.9396573000122,NA,nan,413.93968020001194,414.14695250001387,415.7905699000112,54.77254205609329,416.2825490999967,416.91328619999695,4.0,0.6149634999746922,nan,nan,,,,,,,,410.92006590001984,410.9303230000078,411.4310696000175,411.41495820001,416.9169755000039,416.9169923000154,None,,,,,KL,001,f,24,2025-12-14_10h51.30.885,RSD11,,2025.2.0,60,2025-12-14 10h51.31.552039 +0100,
8,0,8,None,,,,,,,8,0,8,0,416.9295800999971,,,,,,,,,,22.615581849248414,150.0,O,orientation,1,9,,,,,417.4154955999984,417.43021700001555,418.0300563000201,418.03035310000996,418.03043330000946,418.53008540000883,418.53251190000447,419.0299393000023,424.4647980000009,424.9626099000161,419.5299769999983,419.53001320001204,419.94634779999615,419.9464110000117,419.9465707000054,orientation,33.690067525979785,424.4645698000095,424.4646686000051,424.4647237000172,nan,424.96407909999834,425.79549330001464,4.0,0.8158625999931246,nan,,,,,,,,,416.9170873000112,416.9295800999971,417.43021700001555,417.41366780002136,425.7991709000198,425.7991872999992,None,,,,,KL,001,f,24,2025-12-14_10h51.30.885,RSD11,,2025.2.0,60,2025-12-14 10h51.31.552039 +0100,
9,0,9,None,,,,,,,9,0,9,0,425.811852600018,,,,,,,,,,113.51277360884376,22.0,A,orientation,1,10,,,,,426.2973888000124,426.3123130000022,426.91250790000777,426.91293360001873,426.9130385000026,427.4127264000126,427.4160739000072,427.912370200007,431.1719621999946,431.6622206000029,428.4123768999998,428.41241610000725,428.9306857000047,431.1716712000198,431.17177450002055,color,nan,431.17180420001387,431.17185159999644,431.1718734000169,28.675959242477067,431.6638728000107,432.42797849999624,4.0,0.7487908999901265,6.675959242477063,0.8838381000095978,,,,,,,,425.79928310000105,425.811852600018,426.3123130000022,426.2954680999974,432.43336980001186,432.43338610001956,None,,,,,KL,001,f,24,2025-12-14_10h51.30.885,RSD11,,2025.2.0,60,2025-12-14 10h51.31.552039 +0100,
10,0,10,None,,,,,,,10,0,10,0,432.44429610000225,,,,,,,,,,75.58168605822509,248.0,C,color,1,11,,,,,432.9307345999987,432.9445004000154,433.5449978999968,433.54537969999365,433.5454954000015,434.045154499996,434.0487422000151,434.5453752000176,439.1207732000039,439.61102040001424,435.04483460000483,435.0448787000205,435.4504342,435.45047500001965,435.45049390001805,NA,nan,435.45051150000654,435.6515593000222,439.1206827000133,253.80452711502988,439.6126373000152,440.3275793000066,4.0,0.6988498999853618,nan,nan,,,,,,,,432.43348259999766,432.44429610000225,432.9445004000154,432.9287123999966,440.33106009999756,440.33107640000526,None,,,,,KL,001,f,24,2025-12-14_10h51.30.885,RSD11,,2025.2.0,60,2025-12-14 10h51.31.552039 +0100,
11,0,11,None,,,,,,,11,0,11,0,440.3436894000042,,,,,,,,,,39.89828314714196,132.0,O,orientation,1,12,,,,,440.83034400001634,440.84397240000544,441.443222300004,441.4268473999982,441.42690220000804,441.94406609999714,441.94755890002125,442.4439661000215,448.4277504000056,448.9265712000197,442.9437322000158,442.94376290001674,443.34974150001653,443.3497824000078,443.3499434000114,orientation,74.05460409907715,448.4275271999941,448.4276223000197,448.4276790000149,nan,448.92805170000065,449.5930206000048,4.0,0.6490644000004977,nan,,,,,,,,,440.33117140000104,440.3436894000042,440.84397240000544,440.8279092000157,449.5980918999994,449.59810840000864,None,,,,,KL,001,f,24,2025-12-14_10h51.30.885,RSD11,,2025.2.0,60,2025-12-14 10h51.31.552039 +0100,
12,0,12,None,,,,,,,12,0,12,0,449.608868100011,,,,,,,,,,60.40563768651791,22.0,A,color,1,13,,,,,450.09601500001736,450.1091727000021,450.70915780001087,450.70953270001337,450.7096439000161,451.20949209999526,451.2133102999942,451.7097795000009,454.5026362000208,454.99230460001854,452.20920549999573,452.20924610001384,452.64548820001073,454.5023363000073,454.5024456999963,color,nan,454.50247639999725,454.50252530002035,454.5025480000186,25.098461545140538,454.9947289999982,455.65888810000615,4.0,0.6483174000168219,3.0984615451405375,0.6839975999901071,,,,,,,,449.59820570002194,449.608868100011,450.1091727000021,450.09312820000923,455.66235060000326,455.66236670000944,None,,,,,KL,001,f,24,2025-12-14_10h51.30.885,RSD11,,2025.2.0,60,2025-12-14 10h51.31.552039 +0100,
13,0,13,None,,,,,,,13,0,13,0,455.6751004999969,,,,,,,,,,33.68704552242352,92.0,A,color,1,14,,,,,456.1623523000162,456.17503880002187,456.7753939999966,456.75934400002006,456.75943150001694,457.27551810001023,457.27565230001346,457.7755790000083,460.4849911000056,460.97516140001244,458.2755573000177,458.27559950001887,458.68394940000144,460.48470339999767,460.4848084000114,color,nan,460.4848370999971,460.48488480001106,460.4849058999971,114.19880318562221,460.9768674999941,461.5582750000176,4.0,0.5652395999932196,22.19880318562221,0.9172709000122268,,,,,,,,455.6624626000121,455.6751004999969,456.17503880002187,456.15943170001265,461.5619138000184,461.5619308000023,None,,,,,KL,001,f,24,2025-12-14_10h51.30.885,RSD11,,2025.2.0,60,2025-12-14 10h51.31.552039 +0100,
14,0,14,None,,,,,,,14,0,14,0,461.5740524000139,,,,,,,,,,106.91717848483285,196.0,C,color,1,15,,,,,462.059465600003,462.0743913000042,462.67438090001815,462.67465230001835,462.6747282000142,463.17449220002163,463.17701370001305,463.67446629999904,465.7340477000107,466.22474380000494,464.174649099994,464.1746775000065,464.70422240000335,464.7042647000053,464.7042937000224,NA,nan,464.70431470000767,464.9091821000038,465.73396189999767,196.05154821950862,466.226937200001,467.59078020000015,4.0,1.3476920000102837,nan,nan,,,,,,,,461.56202589999884,461.5740524000139,462.0743913000042,462.05776130000595,467.594253999996,467.5942705000052,None,,,,,KL,001,f,24,2025-12-14_10h51.30.885,RSD11,,2025.2.0,60,2025-12-14 10h51.31.552039 +0100,
15,0,15,None,,,,,,,15,0,15,0,467.6065836000198,,,,,,,,,,48.91794735523158,84.0,A,orientation,1,16,,,,,468.090672499995,468.10648489999585,468.7070569000207,468.7073166000191,468.70738609999535,469.20752500000526,469.21061290000216,469.7073961000133,473.74925220001023,474.2403863000218,470.20747540000593,470.20753250000416,470.62105820002034,473.74902400001884,473.7491255000059,orientation,-108.97040780848656,473.749152400007,473.74919910001336,473.74922110000625,nan,474.24266160000116,475.33931680000387,4.0,1.0811836999782827,nan,nan,,,,,,,,467.594365500001,467.6065836000198,468.10648489999585,468.08985059999395,475.3429531000147,475.3429691000201,None,,,,,KL,001,f,24,2025-12-14_10h51.30.885,RSD11,,2025.2.0,60,2025-12-14 10h51.31.552039 +0100,
16,0,16,None,,,,,,,16,0,16,0,475.3554556000163,,,,,,,,,,54.86632812481323,320.0,C,color,1,17,,,,,475.8414083000098,475.8561597999942,476.4561367999995,476.456454500003,476.45653900000616,476.95628110002144,476.9586775000207,477.45630390002043,480.44910739999614,480.9393709000142,477.9562012999959,477.95623530002194,478.36650050000753,478.3665360000159,478.36655430000974,NA,nan,478.36657260000356,478.5599898000073,480.44903210000484,294.89265681598874,480.9411199000024,481.6551369000226,4.0,0.6983985000115354,nan,nan,,,,,,,,475.3430639000144,475.3554556000163,475.8561597999942,475.83979840000393,481.6589804000105,481.6589978999982,None,,,,,KL,001,f,24,2025-12-14_10h51.30.885,RSD11,,2025.2.0,60,2025-12-14 10h51.31.552039 +0100,
17,0,17,None,,,,,,,17,0,17,0,481.67141619999893,,,,,,,,,,20.297163391952644,18.0,O,orientation,1,18,,,,,482.1576534000051,482.1720844999945,482.77194690000033,482.7721938000177,482.77226510000764,483.2722583000141,483.2746981999953,483.7721157000051,487.07322410002234,487.5714786000026,484.27174500000547,484.27176990002044,484.6817866000056,484.68182810000144,484.6819896000088,orientation,-130.91438322002512,487.07299850002164,487.07309730001725,487.0731505000149,nan,487.57292340000276,488.4880031000066,4.0,0.8990569000015967,nan,,,,,,,,,481.6590931999963,481.67141619999893,482.1720844999945,482.1557670000184,488.4920041000005,488.4920204000082,None,,,,,KL,001,f,24,2025-12-14_10h51.30.885,RSD11,,2025.2.0,60,2025-12-14 10h51.31.552039 +0100,
18,0,18,None,,,,,,,18,0,18,0,488.5042529000202,,,,,,,,,,118.13159624426436,170.0,C,color,1,19,,,,,488.99080220001633,489.0046768000175,489.60459230002016,489.6049681000004,489.60507510000025,490.104507400014,490.10729420001735,490.60436800000025,495.08022910001455,495.5704334000184,491.10470670001814,491.1047487000178,491.5132840000151,491.51332450000336,491.51335449999897,NA,nan,491.5133790000109,491.712969300017,495.0801397000032,180.6182757795167,495.57209220001823,496.18660099999397,4.0,0.598588099994231,nan,nan,,,,,,,,488.49213050000253,488.5042529000202,489.0046768000175,488.98834060001536,496.1901521999971,496.1901696000132,None,,,,,KL,001,f,24,2025-12-14_10h51.30.885,RSD11,,2025.2.0,60,2025-12-14 10h51.31.552039 +0100,
19,0,19,None,,,,,,,19,0,19,0,496.20276960000047,,,,,,,,,,114.45366210215384,152.0,C,color,1,20,,,,,496.68966830000863,496.703662600019,497.30350370000815,497.2868331000209,497.28689290001057,497.80342939999537,497.8035183000029,498.3037150000164,504.5623041000217,505.0528387000086,498.80367910000496,498.80371070001274,499.33448130000033,499.33451620000415,499.33453480000026,NA,nan,499.3345523000171,499.53842880000593,504.56221450000885,154.12168041674576,505.05428040001425,505.7358693999995,4.0,0.6658224999846425,nan,nan,,,,,,,,496.19026640002267,496.20276960000047,496.703662600019,496.68739249999635,505.7407383999962,505.74075450000237,None,,,,,KL,001,f,24,2025-12-14_10h51.30.885,RSD11,,2025.2.0,60,2025-12-14 10h51.31.552039 +0100,
20,0,20,None,,,,,,,20,0,20,0,505.75217630001134,,,,,,,,,,46.23847539358943,144.0,A,orientation,1,21,,,,,506.2380999000161,506.2519522999937,506.85244149999926,506.85282000000007,506.8529303999967,507.35245160001796,507.3548379999993,507.8518008000101,511.47838410001714,511.968074400007,508.3524557000201,508.3524916000024,508.7703642999986,511.47809530000086,511.47819860000163,color,nan,511.4782267000119,511.4782732000167,511.47829660002026,147.86275101895822,511.969081200019,512.5511673000001,4.0,0.5660127000010107,3.862751018958221,1.6000878000049852,,,,,,,,505.74085160001414,505.75217630001134,506.2519522999937,506.2361593999958,512.5548191000125,512.5548377000086,None,,,,,KL,001,f,24,2025-12-14_10h51.30.885,RSD11,,2025.2.0,60,2025-12-14 10h51.31.552039 +0100,
21,0,21,None,,,,,,,21,0,21,0,512.5677119000175,,,,,,,,,,116.92804908740128,240.0,O,orientation,1,22,,,,,513.0540454000002,513.068227700016,513.6682230000151,513.6519397000084,513.6520243000123,514.1684468000021,514.172006400011,514.668410000013,519.1692461000057,519.6674786000222,515.1680148000014,515.1680445999955,515.5726200000208,515.5726560000039,515.5728132000077,orientation,152.14034930475773,519.1690328000113,519.169123700005,519.1691779000103,nan,519.6690453000192,520.3168448000215,4.0,0.6322768999962136,nan,,,,,,,,,512.5549365000043,512.5677119000175,513.068227700016,513.0517202000192,520.3218132000184,520.3218418000033,None,,,,,KL,001,f,24,2025-12-14_10h51.30.885,RSD11,,2025.2.0,60,2025-12-14 10h51.31.552039 +0100,
22,0,22,None,,,,,,,22,0,22,0,520.3332112000207,,,,,,,,,,147.3900099169772,252.0,O,orientation,1,23,,,,,520.8195320999948,520.8339571999968,521.4337686000217,521.4341276000196,521.4342254000076,521.9340622000163,521.9342002000194,522.433649100014,524.4021369999973,524.9000640000158,522.933738199994,522.9337739000039,523.3428534000122,523.3428940000013,523.3430518000096,orientation,-8.13010235415598,524.4018921999959,524.402001600014,524.402058800013,nan,524.9017165999976,525.3996188000019,4.0,0.48181659998954274,nan,,,,,,,,,520.3219979999994,520.3332112000207,520.8339571999968,520.8173685999936,525.403083000012,525.4031009000028,None,,,,,KL,001,f,24,2025-12-14_10h51.30.885,RSD11,,2025.2.0,60,2025-12-14 10h51.31.552039 +0100,
23,0,23,None,,,,,,,23,0,23,0,525.4159134000074,,,,,,,,,,175.86251977487248,354.0,O,orientation,1,24,,,,,525.9031577999995,525.9166587000072,526.5166162000096,526.5005796000187,526.5006654000026,527.0168388000166,527.0169719000114,527.516698899999,534.399900599994,534.8989307000011,528.0168271000148,528.0168709999998,528.4216096000164,528.4216510000115,528.4218126000196,orientation,-14.036243467926479,534.3997159000137,534.399797399994,534.399839300022,nan,534.9006824000098,536.0156179000041,4.0,1.0987469999818131,nan,,,,,,,,,525.4032056000142,525.4159134000074,525.9166587000072,525.9004680000071,536.0193049999943,536.0193207999982,None,,,,,KL,001,f,24,2025-12-14_10h51.30.885,RSD11,,2025.2.0,60,2025-12-14 10h51.31.552039 +0100,
24,0,24,None,,,,,,,24,0,24,0,536.0315320000227,,,,,,,,,,6.277560900517846,244.0,A,orientation,1,25,,,,,536.5172019000165,536.5318325000117,537.1318489999976,537.1321501000202,537.1322341000196,537.631981500017,537.6343633000215,538.1320572000113,541.9071984000038,542.3978449999995,538.632017099997,538.6320918000129,539.0428575999977,541.9069734000077,541.9070716999995,orientation,43.264295411071615,541.9071004000143,541.907148600003,541.9071690000128,nan,542.3991340000066,542.8812700000126,4.0,0.46602970000822097,nan,nan,,,,,,,,536.01941790001,536.0315320000227,536.5318325000117,536.5155104000005,542.8852396000002,542.8852558000071,None,,,,,KL,001,f,24,2025-12-14_10h51.30.885,RSD11,,2025.2.0,60,2025-12-14 10h51.31.552039 +0100,
25,0,25,None,,,,,,,25,0,25,0,542.8974738999968,,,,,,,,,,157.15853346189516,342.0,A,color,1,26,,,,,543.3838168999937,543.3973016999953,543.9976181999955,543.9979925000225,543.9981023000146,544.4979034000135,544.4980398000043,544.9978835000074,548.2065093000128,548.6972840999952,545.4975414000219,545.4975855000084,546.0484413999948,548.2062934999994,548.2063870000129,orientation,-13.86102756302115,548.2064136000117,548.2064576999983,548.206479400018,nan,548.6992662000121,549.2799509000033,4.0,0.5651152999780606,nan,nan,,,,,,,,542.8853571000218,542.8974738999968,543.3973016999953,543.3814858999976,549.2836176000128,549.2836334000167,None,,,,,KL,001,f,24,2025-12-14_10h51.30.885,RSD11,,2025.2.0,60,2025-12-14 10h51.31.552039 +0100,
26,0,26,None,,,,,,,26,0,26,0,549.2962605000066,,,,,,,,,,151.08951079081936,260.0,C,color,1,27,,,,,549.7825104000221,549.7969324000005,550.39693670001,550.3973074000096,550.3974173000024,550.8971623000107,550.9008403000189,551.3968011999968,554.0894034999947,554.5799037000106,551.8970095000113,551.8970464000013,552.2906768000103,552.2907166000223,552.2907401999983,NA,nan,552.2907588999951,552.4931287000072,554.0893173000077,275.0306751409608,554.581410200015,555.1459901000198,4.0,0.5487894999969285,nan,nan,,,,,,,,549.2837266999995,549.2962605000066,549.7969324000005,549.780582700012,555.1499613000196,555.1499779000005,None,,,,,KL,001,f,24,2025-12-14_10h51.30.885,RSD11,,2025.2.0,60,2025-12-14 10h51.31.552039 +0100,
27,0,27,None,,,,,,,27,0,27,0,555.1621551999997,,,,,,,,,,79.00627684327604,0.0,A,orientation,1,28,,,,,555.6481618999969,555.6628740000015,556.2627356000012,556.2631036000093,556.2632034000126,556.7631253,556.7669244999997,557.2630325000209,562.7544861000206,563.245136100013,557.762684700021,557.7627302000183,558.172661300021,562.7542612999969,562.7543586000102,orientation,86.98721249581666,562.7543867000204,562.7544328999938,562.7544553000189,nan,563.246638200013,563.8615726999997,4.0,0.5993415999982972,nan,nan,,,,,,,,555.1500728999963,555.1621551999997,555.6628740000015,555.6463418000203,563.8653328000219,563.8653487999982,None,,,,,KL,001,f,24,2025-12-14_10h51.30.885,RSD11,,2025.2.0,60,2025-12-14 10h51.31.552039 +0100,
28,0,28,None,,,,,,,28,0,28,0,563.8779141000123,,,,,,,,,,23.417283223668232,182.0,O,orientation,1,29,,,,,564.364985799999,564.3781709000177,564.9782670999994,564.9623378000106,564.9624233000213,565.4786409999942,565.4821266000217,565.9780212000187,570.0130633000226,570.5112798000046,566.4786406000203,566.4787009000138,566.8892718999996,566.8893142000015,566.8894755000074,orientation,36.86989764584402,570.0128261000209,570.0129293000209,570.0129843000032,nan,570.513346599997,571.0776213000063,4.0,0.5484035999979824,nan,,,,,,,,,563.8654440999962,563.8779141000123,564.3781709000177,564.3623687000072,571.0809275000065,571.0809437000134,None,,,,,KL,001,f,24,2025-12-14_10h51.30.885,RSD11,,2025.2.0,60,2025-12-14 10h51.31.552039 +0100,
29,0,29,None,,,,,,,29,0,29,0,571.0935527000111,,,,,,,,,,119.15229312975245,14.0,A,color,1,30,,,,,571.5803096000163,571.5936068000156,572.1941241000022,572.1776631000102,572.1777480000164,572.6944203000166,572.6976943000045,573.1942043000017,576.6860615000187,577.1776797000202,573.6943996000045,573.6944435000187,574.1047359000077,576.6858371999988,576.6859357000212,orientation,-25.083594006190918,576.6859643000062,576.6860102000064,576.6860310000193,nan,577.1799663999991,577.893098200002,4.0,0.6971163999987766,nan,nan,,,,,,,,571.0810398000176,571.0935527000111,571.5936068000156,571.5780730000115,577.8968916000158,577.8969092000043,None,,,,,KL,001,f,24,2025-12-14_10h51.30.885,RSD11,,2025.2.0,60,2025-12-14 10h51.31.552039 +0100,
30,0,30,None,,,,,,,30,0,30,0,577.9093148999964,,,,,,,,,,159.73326966987662,312.0,A,orientation,1,31,,,,,578.3960263000045,578.409574499994,579.0095387000183,578.9939174000174,578.9939879000012,579.5102813999983,579.5103861000098,580.0099630000186,583.9525520000025,584.4427124000213,580.509996400011,580.5100326999964,580.9238252000068,583.9522733000049,583.9523919000058,orientation,-8.325650330426836,583.952425800002,583.9524849000154,583.9525216000038,nan,584.4445642000064,584.9596212000179,4.0,0.49868460002471693,nan,nan,,,,,,,,577.8970042000001,577.9093148999964,578.409574499994,578.3938295000116,584.9647882000136,584.9648041000182,None,,,,,KL,001,f,24,2025-12-14_10h51.30.885,RSD11,,2025.2.0,60,2025-12-14 10h51.31.552039 +0100,
31,0,31,None,,,,,,,31,0,31,0,584.9755007000058,,,,,,,,,,71.94039776314001,356.0,O,orientation,1,32,,,,,585.4621618000092,585.475417300011,586.075771600008,586.0761448999983,586.0762539000134,586.5755577000091,586.5784853000077,587.07594900002,591.326441000012,591.8256534000102,587.5759646000224,587.576012000005,588.1253292000038,588.1253640000068,588.1255041999975,orientation,85.5787105785694,591.3262534000096,591.3263383000158,591.3263802000147,nan,591.8275690000155,592.5587001999957,4.0,0.7145497000019532,nan,,,,,,,,,584.9648984000087,584.9755007000058,585.475417300011,585.4597647000046,592.5625660000078,592.5625816000102,None,,,,,KL,001,f,24,2025-12-14_10h51.30.885,RSD11,,2025.2.0,60,2025-12-14 10h51.31.552039 +0100,
32,0,32,None,,,,,,,32,0,32,0,592.5742583000101,,,,,,,,,,6.700670455603004,300.0,A,orientation,1,33,,,,,593.0601189000008,593.0746902000101,593.6744840000174,593.674787099997,593.6748711999971,594.175014700013,594.1776080999989,594.6744884000218,598.2174066000152,598.7080087000213,595.1749939000001,595.1750540000212,595.585814799997,598.2171595999971,598.21724920001,color,nan,598.2172730000166,598.2173211000045,598.2173391999968,293.48411529050486,598.7099873000116,599.3407501000038,4.0,0.6148687000095379,-6.51588470949514,1.7167115999909583,,,,,,,,592.5626812000119,592.5742583000101,593.0746902000101,593.0582124000066,599.3442713000113,599.3442874000175,None,,,,,KL,001,f,24,2025-12-14_10h51.30.885,RSD11,,2025.2.0,60,2025-12-14 10h51.31.552039 +0100,
33,0,33,None,,,,,,,33,0,33,0,599.3571781000064,,,,,,,,,,108.08924094145013,308.0,A,color,1,34,,,,,599.8424016000063,599.8572711000161,600.4573142000008,600.4576048000017,600.4576841999951,600.9567830000015,600.9568815999955,601.457281400013,606.3824976000178,606.8737575999985,601.9575052,601.9575498000195,602.3659766000055,606.382274100004,606.3823737000057,orientation,-50.575200570037936,606.3824008000083,606.3824459000025,606.3824671000184,nan,606.8756480000156,607.5234896000184,4.0,0.631099299993366,nan,nan,,,,,,,,599.3443852000055,599.3571781000064,599.8572711000161,599.8406226999941,607.5286730999942,607.5286894000019,None,,,,,KL,001,f,24,2025-12-14_10h51.30.885,RSD11,,2025.2.0,60,2025-12-14 10h51.31.552039 +0100,
34,0,34,None,,,,,,,34,0,34,0,607.5392603000219,,,,,,,,,,6.337629151622329,28.0,A,color,1,35,,,,,608.0265208000201,608.0396572000172,608.6396096000099,608.6399885000137,608.6400972999982,609.1396754000161,609.1398088000133,609.6397933000117,613.5649208000104,614.0559820000199,610.1396247000084,610.139657199994,610.5512022000039,613.5647026000079,613.5647973000014,orientation,48.366460663429805,613.5648239000002,613.5648691999959,613.5648904000118,nan,614.0577331999957,614.6221828999987,4.0,0.5485877000028268,nan,nan,,,,,,,,607.5287863000121,607.5392603000219,608.0396572000172,608.0237358000013,614.6256767000013,614.6256925000052,None,,,,,KL,001,f,24,2025-12-14_10h51.30.885,RSD11,,2025.2.0,60,2025-12-14 10h51.31.552039 +0100,
35,0,35,None,,,,,,,35,0,35,0,614.6382863000035,,,,,,,,,,141.5085231873586,150.0,A,orientation,1,36,,,,,615.1246225000068,615.1387264000077,615.7380401999981,615.7382104000135,615.7382634000096,616.2389258000185,616.2390626000124,616.738645800011,619.9472421999963,620.4383723000064,617.2386800000095,617.2387195000192,617.6453265000018,619.947026800015,619.9471186000155,orientation,-16.389540334034784,619.947146200022,619.9471910000138,619.9472124000022,nan,620.4402434999938,620.871543300018,4.0,0.4152567000128329,nan,nan,,,,,,,,614.6257867999957,614.6382863000035,615.1387264000077,615.1221337000025,620.876803399995,620.8768199000042,None,,,,,KL,001,f,24,2025-12-14_10h51.30.885,RSD11,,2025.2.0,60,2025-12-14 10h51.31.552039 +0100,
36,0,36,None,,,,,,,36,0,36,0,620.8877460999938,,,,,,,,,,119.06486867878716,256.0,A,orientation,1,37,,,,,621.3734091999941,621.3878054000088,621.9876423999958,621.9880147000076,621.988125200005,622.4880120000162,622.4881444000057,622.9878534000018,626.2136974000023,626.7043350000167,623.4878708000178,623.4879136999953,623.8885130000126,626.2134086000151,626.2135123000189,color,nan,626.2135413000069,626.2135882000148,626.2136100000062,274.51913771470646,626.7063826000085,627.4042215000081,4.0,0.6812428000266664,18.51913771470646,0.6664710000040941,,,,,,,,620.8769209000166,620.8877460999938,621.3878054000088,621.3713699000073,627.4078446000058,627.4078608000127,None,,,,,KL,001,f,24,2025-12-14_10h51.30.885,RSD11,,2025.2.0,60,2025-12-14 10h51.31.552039 +0100,
37,0,37,None,,,,,,,37,0,37,0,627.4204262999992,,,,,,,,,,61.47166765627733,182.0,A,orientation,1,38,,,,,627.9062914999959,627.9203326000134,628.5203440000187,628.520656800014,628.5207431000017,629.0203657000093,629.0204717000015,629.5205518000002,633.0789400000067,633.5700247000204,630.020549000008,630.0205831000058,630.420535000012,633.0787213000003,633.0788175000052,orientation,68.19859051364818,633.0788439000025,633.0788883000205,633.0789097000088,nan,633.5717146999959,634.5526300000201,4.0,0.9655803999921773,nan,nan,,,,,,,,627.4079566000146,627.4204262999992,627.9203326000134,627.9041423000162,634.5564635000192,634.5564815000107,None,,,,,KL,001,f,24,2025-12-14_10h51.30.885,RSD11,,2025.2.0,60,2025-12-14 10h51.31.552039 +0100,
38,0,38,None,,,,,,,38,0,38,0,634.5687729000056,,,,,,,,,,176.06775075727583,44.0,A,color,1,39,,,,,635.0544349999982,635.069443800021,635.6690875000204,635.6693538000109,635.6694257000054,636.1696775000019,636.1697863000154,636.6695534000173,639.662161300017,640.1527875000029,637.1692575000052,637.1692999000079,637.5827665000106,639.6618671000178,639.6619726000063,color,nan,639.6620008000173,639.6620474999945,639.6620709999988,41.827816454161244,640.1550745000131,640.6024702000141,4.0,0.4312958000227809,-2.172183545838749,1.0001364999916404,,,,,,,,634.5565787999949,634.5687729000056,635.069443800021,635.0526866000146,640.6077707000077,640.60778630001,None,,,,,KL,001,f,24,2025-12-14_10h51.30.885,RSD11,,2025.2.0,60,2025-12-14 10h51.31.552039 +0100,
39,0,39,None,,,,,,,39,0,39,0,640.6181116000225,,,,,,,,,,20.893237559373656,148.0,A,orientation,1,40,,,,,641.1048919000023,641.1186068000097,641.7186819000053,641.7190516999981,641.7191662999976,642.218761600001,642.218875200022,642.7185542999941,646.6108046000008,647.1014605000091,643.218368700007,643.2183958000096,643.6313297000015,646.6105818000215,646.6106759000104,orientation,50.41186915231703,646.6107039000199,646.6107525000116,646.6107733999961,nan,647.1029513000103,647.567925100011,4.0,0.4493555999943055,nan,nan,,,,,,,,640.6078837999958,640.6181116000225,641.1186068000097,641.102550200012,647.5737151000067,647.5737319000182,None,,,,,KL,001,f,24,2025-12-14_10h51.30.885,RSD11,,2025.2.0,60,2025-12-14 10h51.31.552039 +0100,
40,0,40,None,,,,,,,40,0,40,0,647.583879200014,,,,,,,,,,144.94225625399244,188.0,C,color,1,41,,,,,648.0709440000064,648.0845561000169,648.68446270001,648.6848336000112,648.6849421000225,649.1843233999971,649.1872173000011,649.6844433000078,651.4939435000124,651.984658100002,650.1846581000136,650.1847007000179,650.5901891000103,650.5902322000184,650.5902621000132,NA,nan,650.5902838000038,650.797189200006,651.4938566000201,180.45653041409906,651.9867302000057,653.1505917000177,4.0,1.1478740999882575,nan,nan,,,,,,,,647.57382770002,647.583879200014,648.0845561000169,648.0684669000038,653.1558322000201,653.1558497000078,None,,,,,KL,001,f,24,2025-12-14_10h51.30.885,RSD11,,2025.2.0,60,2025-12-14 10h51.31.552039 +0100,
41,0,41,None,,,,,,,41,0,41,0,653.1669351000164,,,,,,,,,,29.523677501002446,90.0,A,color,1,42,,,,,653.6522736000188,653.666953500011,654.2669010999962,654.2671817000082,654.267262600013,654.7672949999978,654.7697277000116,655.2670956999937,658.453845400014,658.9490621000004,655.7672279000108,655.7672802000016,656.1786124000209,658.4534387000022,658.4535788000212,color,nan,658.4536159000127,658.4536898999941,658.4537300000084,77.96279767963426,658.9497660000052,659.5997604000149,4.0,0.6333553000004031,-12.037202320365736,0.9295459000277333,,,,,,,,653.155946200015,653.1669351000164,653.666953500011,653.6504290000012,659.6051951000118,659.6052201999992,None,,,,,KL,001,f,24,2025-12-14_10h51.30.885,RSD11,,2025.2.0,60,2025-12-14 10h51.31.552039 +0100,
42,0,42,None,,,,,,,42,0,42,0,659.6156248000043,,,,,,,,,,103.40013816833809,96.0,O,orientation,1,43,,,,,660.1001551000227,660.1154551000218,660.7152757000003,660.7154032000108,660.7154406000045,661.215499700018,661.2170665000158,661.7152653000085,666.9491160000034,667.4479597000172,662.2154026000062,662.2154173000017,662.7286331000214,662.7286770000064,662.7288801000104,orientation,-63.76396116763637,666.9489592000027,666.9490426999982,666.9490807999973,nan,667.4489432999981,668.2482610000006,4.0,0.7830916999955662,nan,,,,,,,,,659.6053875000216,659.6156248000043,660.1154551000218,660.0989470000204,668.2520963000134,668.2521170999971,None,,,,,KL,001,f,24,2025-12-14_10h51.30.885,RSD11,,2025.2.0,60,2025-12-14 10h51.31.552039 +0100,
43,0,43,None,,,,,,,43,0,43,0,668.264447900001,,,,,,,,,,62.29152386136236,90.0,A,color,1,44,,,,,668.7492973000044,668.764542799996,669.3643829000066,669.3644910000148,669.3645308999985,669.8645082000003,669.866107400012,670.3644663000014,673.6530972000037,674.1473258000042,670.8642276000173,670.8642415000068,671.5202262999956,673.6528090000211,673.6529333000071,color,nan,673.6529616000189,673.6530067000131,673.653025800013,96.36356823564223,674.1480501000187,674.6643198000093,4.0,0.5000230000005104,6.363568235642219,0.9498720999981742,,,,,,,,668.2522493000142,668.264447900001,668.764542799996,668.7479441000032,674.668249600014,674.6682704999985,None,,,,,KL,001,f,24,2025-12-14_10h51.30.885,RSD11,,2025.2.0,60,2025-12-14 10h51.31.552039 +0100,
44,0,44,None,,,,,,,44,0,44,0,674.6804055999964,,,,,,,,,,149.11149649795306,42.0,A,color,1,45,,,,,675.1647010000015,675.180230900005,675.7803122000187,675.7804445000074,675.7804931999999,676.2801916000026,676.2802425000118,676.7803578000166,680.9255844000145,681.4132960000134,677.2801139999938,677.2801265000016,678.0302849000145,680.9252458999981,680.9254105,orientation,-28.072486935852957,680.9254495000059,680.925516999996,680.9255477999977,nan,681.4142276000057,681.7966290000186,4.0,0.3664021999866236,nan,nan,,,,,,,,674.668387200014,674.6804055999964,675.180230900005,675.1638036000077,681.8003790999937,681.8004006000119,None,,,,,KL,001,f,24,2025-12-14_10h51.30.885,RSD11,,2025.2.0,60,2025-12-14 10h51.31.552039 +0100,
45,0,45,None,,,,,,,45,0,45,0,681.8128736000217,,,,,,,,,,92.57537301068261,352.0,C,color,1,46,,,,,682.2972972000134,682.312855199998,682.9126512000221,682.9127852999954,682.9128961999959,683.4127608000126,683.414145799994,683.9127837000124,685.9803669000103,686.4792466000072,684.4129363000102,684.4129460999975,684.9078492000117,684.9078907000076,684.9079159999965,NA,nan,684.9079360000032,685.1481248000055,685.980267100007,37.58062895711954,686.4798855000117,687.3624367000011,4.0,0.8662674000079278,nan,nan,,,,,,,,681.8005153000122,681.8128736000217,682.312855199998,682.2963612000167,687.3661758000089,687.366196100018,None,,,,,KL,001,f,24,2025-12-14_10h51.30.885,RSD11,,2025.2.0,60,2025-12-14 10h51.31.552039 +0100,
46,0,46,None,,,,,,,46,0,46,0,687.3785301000171,,,,,,,,,,37.092606390464475,12.0,A,orientation,1,47,,,,,687.863004200015,687.8786834000202,688.4784943000122,688.4786886000074,688.4787476000201,688.9784442000091,688.9796235999966,689.4783989000134,693.3033348000026,693.7949996000098,689.9785300999938,689.9785443000146,690.4107544000144,693.3028964000114,693.3030627999979,color,nan,693.3031075000181,693.3031769000227,693.3032111000211,19.10754714052334,693.7956756000058,694.2950568000088,4.0,0.4830668000213336,7.107547140523337,1.58964439999545,,,,,,,,687.366311699996,687.3785301000171,687.8786834000202,687.8621105000202,694.2988512000011,694.2988731000223,None,,,,,KL,001,f,24,2025-12-14_10h51.30.885,RSD11,,2025.2.0,60,2025-12-14 10h51.31.552039 +0100,
47,0,47,None,,,,,,,47,0,47,0,694.3112132000097,,,,,,,,,,21.23953683759311,194.0,A,color,1,48,,,,,694.7954870999965,694.8111636000103,695.4109450000105,695.4111910000211,695.4112372999953,695.9111568999942,695.911211300001,696.4108799000096,700.1440120000043,700.6438918000204,696.9109123999951,696.9109219000093,697.3944673000078,700.1437256000063,700.1438487000123,color,nan,700.1438760000165,700.1439257000166,700.1439459999965,195.12935206384665,700.6445843999973,701.3443338000216,4.0,0.6835255999758374,1.1293520638466532,1.1679537000018172,,,,,,,,694.2989973000076,694.3112132000097,694.8111636000103,694.7946052000043,701.350153700012,701.3501911000058,None,,,,,KL,001,f,24,2025-12-14_10h51.30.885,RSD11,,2025.2.0,60,2025-12-14 10h51.31.552039 +0100,
48,0,48,None,,,,,,,48,0,48,0,701.3601853,,,,,,,,,,166.3135598926297,76.0,A,orientation,1,49,,,,,701.8450800999999,701.8602216000145,702.4600425999961,702.460184800002,702.4602207000135,702.9599998000194,702.9600420000206,703.4601629000099,706.8854770000034,707.3762593000138,703.960016099998,703.9600285000051,704.4032429000072,706.8852215000079,706.8853511000052,orientation,-5.710593137499642,706.8853872000182,706.8854348000023,706.8854557000159,nan,707.3772596000053,707.8266543000063,4.0,0.4337156999972649,nan,nan,,,,,,,,701.3503961999959,701.3601853,701.8602216000145,701.843752100016,707.8302966000047,707.8303181999945,None,,,,,KL,001,f,24,2025-12-14_10h51.30.885,RSD11,,2025.2.0,60,2025-12-14 10h51.31.552039 +0100,
49,0,49,None,,,,,,,49,0,49,0,707.8428689000139,,,,,,,,,,159.51829852325633,342.0,C,color,1,50,,,,,708.327526100009,708.3427811000147,708.9427370000049,708.9428527000127,708.9428806000215,709.4427646000113,709.4446360000002,709.9427657000197,715.1565296000044,715.6420229000214,710.4427179000049,710.4427301000105,710.8716621000203,710.8717086999968,710.8717410000099,NA,nan,710.8717678000103,711.085016099998,715.1563655000064,342.434985312707,715.6426772999985,716.0423142000218,4.0,0.38334369999938644,nan,nan,,,,,,,,707.8304398000182,707.8428689000139,708.3427811000147,708.3261784000206,716.0461838000047,716.0462058999983,None,,,,,KL,001,f,24,2025-12-14_10h51.30.885,RSD11,,2025.2.0,60,2025-12-14 10h51.31.552039 +0100,
50,0,50,None,,,,,,,50,0,50,0,716.0584618000139,,,,,,,,,,60.22630482156376,126.0,A,orientation,1,51,,,,,716.5434929000039,716.5584424000117,717.1583733000152,717.158486100001,717.1585148000158,717.658311200008,717.6597734999959,718.1584664999973,723.1886159999995,723.6743550999963,718.6584047000215,718.65841980002,719.1172231000091,723.1883111000061,723.1884383000142,color,nan,723.1884745999996,723.1885270000203,723.1885482000071,103.05824339487127,723.6750076000171,724.3412645000208,4.0,0.6499646999873221,-22.941756605128717,2.1484441999928094,,,,,,,,716.0463235000207,716.0584618000139,716.5584424000117,716.5420928999956,724.3449289000127,724.3449500999996,None,,,,,KL,001,f,24,2025-12-14_10h51.30.885,RSD11,,2025.2.0,60,2025-12-14 10h51.31.552039 +0100,
51,0,51,None,,,,,,,51,0,51,0,724.3575603000063,,,,,,,,,,125.04377625347456,248.0,C,color,1,52,,,,,724.841974400013,724.8573899000185,725.4573444999987,725.4575715000101,725.4576109000191,725.9573151000077,725.9588634000102,726.4572490999999,730.9005564000108,731.3909117000003,726.9572368000227,726.9572464000084,727.6854772999941,727.6855281000026,727.6855635000102,NA,nan,727.6855885999976,727.9193135999958,730.9004673000018,242.88755357204425,731.3926169000042,732.123768200021,4.0,0.715000099997269,nan,nan,,,,,,,,724.3450692000042,724.3575603000063,724.8573899000185,724.8407761999988,732.1290284999995,732.1290459000156,None,,,,,KL,001,f,24,2025-12-14_10h51.30.885,RSD11,,2025.2.0,60,2025-12-14 10h51.31.552039 +0100,
52,0,52,None,,,,,,,52,0,52,0,732.1397390000056,,,,,,,,,,171.92957355170503,212.0,C,color,1,53,,,,,732.6267004999972,732.6403149999969,733.240481100016,733.2408513000119,733.2409606000001,733.7407146000187,733.7408515000134,734.2402554000146,736.8498810000019,737.340366599994,734.7401335000177,734.7401639000163,735.1539477000188,735.153987800004,735.154017599998,NA,nan,735.1540393000178,735.3616052000143,736.8497960999957,207.61886807376638,737.3425278000068,737.8562074000074,4.0,0.49797499997657724,nan,nan,,,,,,,,732.129139800003,732.1397390000056,732.6403149999969,732.6242882000224,737.8602941000136,737.860310899996,None,,,,,KL,001,f,24,2025-12-14_10h51.30.885,RSD11,,2025.2.0,60,2025-12-14 10h51.31.552039 +0100,
53,0,53,None,,,,,,,53,0,53,0,737.872472899995,,,,,,,,,,62.80221181699206,324.0,O,orientation,1,54,,,,,738.3598271000083,738.3732134000165,738.9731793999963,738.9566685000027,738.9567439999955,739.4731776000117,739.4768721,739.9734993000166,742.9746129999985,743.4728947000112,740.4733920000144,740.4734287000028,740.8876206999994,740.8876542000216,740.8877866000112,orientation,86.60698893091126,742.9743766000029,742.9744800000044,742.9745347000135,nan,743.4744107000006,744.2057113000192,4.0,0.7154910999815911,nan,,,,,,,,,737.8604030999995,737.872472899995,738.3732134000165,738.3570345000189,744.2092100000009,744.2092261000071,None,,,,,KL,001,f,24,2025-12-14_10h51.30.885,RSD11,,2025.2.0,60,2025-12-14 10h51.31.552039 +0100,
54,0,54,None,,,,,,,54,0,54,0,744.2222527000122,,,,,,,,,,3.266195964130796,310.0,A,color,1,55,,,,,744.708428700018,744.7222268000187,745.3220087000227,745.3062231999938,745.3063078999985,745.8212920000078,745.8224991000025,746.3225501000124,751.731637799996,752.2217149000207,746.8224526999984,746.8224917000043,747.2351162999985,751.7313466000196,751.7314503999951,color,nan,751.7314806000213,751.7315272999986,751.7315496999945,330.94539590092285,752.2235317000013,752.7877581000212,4.0,0.5483963000006042,20.945395900922847,3.1500110999913886,,,,,,,,744.209320599999,744.2222527000122,744.7222268000187,744.7061734000163,752.7916409000172,752.7916574999981,None,,,,,KL,001,f,24,2025-12-14_10h51.30.885,RSD11,,2025.2.0,60,2025-12-14 10h51.31.552039 +0100,
55,0,55,None,,,,,,,55,0,55,0,752.8044532000204,,,,,,,,,,173.5493446787787,132.0,O,orientation,1,56,,,,,753.2906223000027,753.3046299999987,753.904435000004,753.8883423000225,753.8883985000139,754.4041702999966,754.4061394000018,754.904810100008,757.0887197999982,757.5872690000106,755.4043528000184,755.4043831000163,755.8087152000226,755.8087576999969,755.8089659000107,orientation,-174.00180048890942,757.0885120000166,757.0886036000156,757.0886491000128,nan,757.5887205000035,758.7536091000075,4.0,1.1493084000248928,nan,,,,,,,,,752.79175210002,752.8044532000204,753.3046299999987,753.2879805999983,758.7573533999966,758.7573710000142,None,,,,,KL,001,f,24,2025-12-14_10h51.30.885,RSD11,,2025.2.0,60,2025-12-14 10h51.31.552039 +0100,
56,0,56,None,,,,,,,56,0,56,0,758.769683200022,,,,,,,,,,90.21890570972045,262.0,C,color,1,57,,,,,759.2568380000012,759.2701589000062,759.8704788000032,759.8543796000013,759.8544632999983,760.370596599998,760.3735074000142,760.870713500015,764.2629207000136,764.7536279000051,761.370639700006,761.3706860000093,761.7814277000143,761.7814619000128,761.7814798000036,NA,nan,761.7814997000096,761.9774756999977,764.2628320000076,264.7508124792657,764.7558194000158,765.5028213000041,4.0,0.7315716000157408,nan,nan,,,,,,,,758.7574657000077,758.769683200022,759.2701589000062,759.2543051000102,765.5066176000109,765.5066346999956,None,,,,,KL,001,f,24,2025-12-14_10h51.30.885,RSD11,,2025.2.0,60,2025-12-14 10h51.31.552039 +0100,
57,0,57,None,,,,,,,57,0,57,0,765.5189380999946,,,,,,,,,,36.2334879993405,188.0,A,orientation,1,58,,,,,766.0062287000183,766.0194819000026,766.6194973000092,766.6036090000125,766.6036882000044,767.1197995000111,767.1232316000096,767.6196886000107,773.2113411000173,773.7025426000182,768.1194865000143,768.1195296000224,768.724546900019,773.2111204999965,773.2112138000084,orientation,35.83765295427829,773.2112412000133,773.2112887999974,773.2113112000225,nan,773.704710799997,774.2022062000178,4.0,0.4813271999883,nan,nan,,,,,,,,765.5067279000068,765.5189380999946,766.0194819000026,766.003434400016,774.2076033000194,774.2076196999988,None,,,,,KL,001,f,24,2025-12-14_10h51.30.885,RSD11,,2025.2.0,60,2025-12-14 10h51.31.552039 +0100,
58,0,58,None,,,,,,,58,0,58,0,774.218257600005,,,,,,,,,,54.0692230441653,306.0,A,color,1,59,,,,,774.7046124000044,774.7186192000227,775.3185875000199,775.3189610000118,775.3190740999999,775.8188013000181,775.818921500002,776.3184699999983,780.3443618000019,780.8344216000114,776.8182184000034,776.8182513000211,777.2297474000079,780.3440759000077,780.3441810000222,color,nan,780.344206800015,780.3442526000144,780.3442746000073,288.434948822922,780.8358830000216,781.4177850999986,4.0,0.566076899995096,-17.565051177077976,2.0499503000173718,,,,,,,,774.2077153999999,774.218257600005,774.7186192000227,774.7022510000097,781.421279000002,781.4212946000043,None,,,,,KL,001,f,24,2025-12-14_10h51.30.885,RSD11,,2025.2.0,60,2025-12-14 10h51.31.552039 +0100,
59,0,59,space,118.91215670001111,None,,,,,59,0,59,0,781.4337224000192,,,,,,,,,,0.5385644061653516,280.0,C,color,1,60,,,,,781.9198741000146,781.9344186999951,782.5343601000204,782.5347334000107,782.5348420999944,783.0345656000136,783.038277500018,783.533751400013,786.0604046999943,786.5510265000048,784.0340459000145,784.0340802000137,784.4405223000213,784.4405652999994,784.4405967000057,NA,nan,784.4406184999971,784.6469623000012,786.0603179000027,281.79342968491045,786.5534556000202,787.1166311000125,4.0,0.5475867999775801,nan,nan,,,,,,,,781.42139090001,781.4337224000192,781.9344186999951,781.917966500012,787.1338192000112,906.0526064000151,space,787.1359352,787.1359352,118.91215670001111,None,KL,001,f,24,2025-12-14_10h51.30.885,RSD11,,2025.2.0,60,2025-12-14 10h51.31.552039 +0100,
60,0,60,None,,,,,,,60,0,60,0,906.0682066000008,,,,,,,,,,4.571869681697187,208.0,O,orientation,2,1,,,,,906.5544327000098,906.5685083999997,907.1686521999945,907.1523445000057,907.1524113000196,907.6520883000048,907.6544290000165,908.1518784000073,912.2028887000051,912.7013611000148,908.6515931000176,908.6516195000149,909.0550404000096,909.0550995999947,909.0553125000151,orientation,34.753531529189964,912.202666600002,912.2027566000179,912.2028147999954,nan,912.7037129999953,913.8341497000074,4.0,1.1145086000033189,nan,,,,,,,,,906.0530204999959,906.0682066000008,906.5685083999997,906.5520926000027,913.8401326000167,913.8401498000021,None,,,,,KL,001,f,24,2025-12-14_10h51.30.885,RSD11,,2025.2.0,60,2025-12-14 10h51.31.552039 +0100,
61,0,61,None,,,,,,,61,0,61,0,913.8503330000094,,,,,,,,,,77.81614639587494,346.0,A,orientation,2,2,,,,,914.337093500013,914.350980600022,914.9501736999955,914.9503709000128,914.9504323000147,915.4509524000168,915.4537655000167,915.9511746000207,918.9604025000008,919.4502984000137,916.4507873000111,916.4508228000195,916.8589040000224,918.960114800022,918.9602204000112,color,nan,918.9602480000176,918.9602947999956,918.9603164000146,355.0631170629905,919.4519289000018,920.0500886999944,4.0,0.5822097999916878,9.0631170629905,1.0169880999892484,,,,,,,,913.8402430000133,913.8503330000094,914.350980600022,914.3348004000145,920.0543280999991,920.0543447000091,None,,,,,KL,001,f,24,2025-12-14_10h51.30.885,RSD11,,2025.2.0,60,2025-12-14 10h51.31.552039 +0100,
62,0,62,None,,,,,,,62,0,62,0,920.0661789000151,,,,,,,,,,151.0399284280155,346.0,C,color,2,3,,,,,920.5534525999974,920.5665512999985,921.1665519000089,921.1508185999992,921.1509038000077,921.6668024999963,921.6697927000059,922.1668467000127,925.476155500015,925.9665689000103,922.6666274000017,922.6666614999995,923.0738356999937,923.0738800000108,923.0739105000102,NA,nan,923.07393340001,923.2773119000194,925.476071800018,351.73444688278244,925.968253900006,926.3992544000212,4.0,0.4150305000075605,nan,nan,,,,,,,,920.0544400000072,920.0661789000151,920.5665512999985,920.5507499999949,926.4031259000185,926.4031422999979,None,,,,,KL,001,f,24,2025-12-14_10h51.30.885,RSD11,,2025.2.0,60,2025-12-14 10h51.31.552039 +0100,
63,0,63,None,,,,,,,63,0,63,0,926.4156014000182,,,,,,,,,,30.45342225133504,128.0,O,orientation,2,4,,,,,926.9027108000009,926.9161230000027,927.5157472999999,927.4999377000204,927.5000210000144,928.0163085999957,928.019738300005,928.515651099995,931.9673617999943,932.4658816000156,929.0162216000026,929.0162834000075,929.4264760000224,929.4265098000178,929.426646900014,orientation,56.309932474020215,931.9671253999986,931.967226800014,931.9672816999955,nan,932.4677563000005,932.9652961000102,4.0,0.4816759999957867,nan,,,,,,,,,926.4032366000174,926.4156014000182,926.9161230000027,926.8999349000223,932.9694576000038,932.9694738000107,None,,,,,KL,001,f,24,2025-12-14_10h51.30.885,RSD11,,2025.2.0,60,2025-12-14 10h51.31.552039 +0100,
64,0,64,None,,,,,,,64,0,64,0,932.9812141000002,,,,,,,,,,19.488696557757667,68.0,C,color,2,5,,,,,933.4685401000024,933.4818411000015,934.0817429000163,934.0651935000205,934.0652749000001,934.5818837000115,934.5855061000038,935.0819938000059,939.1074837000051,939.598117400019,935.581702800002,935.5817396000202,935.9924797000131,935.9925185000175,935.9925480000093,NA,nan,935.9925716000143,936.4155610000016,939.1073954000021,49.84400037508068,939.5999792000221,940.2314935000031,4.0,0.6147741999884602,nan,nan,,,,,,,,932.9695672999951,932.9812141000002,933.4818411000015,933.465684099996,940.2356836000108,940.235699700017,None,,,,,KL,001,f,24,2025-12-14_10h51.30.885,RSD11,,2025.2.0,60,2025-12-14 10h51.31.552039 +0100,
65,0,65,None,,,,,,,65,0,65,0,940.2472553999978,,,,,,,,,,56.65810005843338,338.0,O,orientation,2,6,,,,,940.7347009000077,940.7472873000079,941.3474455999967,941.331500500004,941.3315824000165,941.8478157000209,941.8511165000091,942.3473311999987,945.4157985000056,945.9140309000213,942.8472799000156,942.847317000007,943.2543478000152,943.254388900008,943.2545481999987,orientation,52.85331330197822,945.4155565999972,945.4156663000176,945.4157210999983,nan,945.9157920000143,946.4804194000026,4.0,0.5485283000161871,nan,,,,,,,,,940.2357985000126,940.2472553999978,940.7472873000079,940.7318505000148,946.483965100022,946.4839815000014,None,,,,,KL,001,f,24,2025-12-14_10h51.30.885,RSD11,,2025.2.0,60,2025-12-14 10h51.31.552039 +0100,
66,0,66,None,,,,,,,66,0,66,0,946.4965401999943,,,,,,,,,,167.70011112522687,316.0,O,orientation,2,7,,,,,946.9834587000078,946.996939100005,947.596890100016,947.5803952999995,947.5804657000117,948.0971083000186,948.097236200003,948.5967544000014,950.8145317000162,951.3135750000074,949.0968746000144,949.0969052000146,949.509201000008,949.509241599997,949.5094054000219,orientation,-17.912509385963265,950.8143134000129,950.8144053000142,950.8144591000164,nan,951.3159367000044,951.8791052000015,4.0,0.5480528000043705,nan,,,,,,,,,946.4840779000078,946.4965401999943,946.996939100005,946.980727200018,951.8828401000064,951.8828571000195,None,,,,,KL,001,f,24,2025-12-14_10h51.30.885,RSD11,,2025.2.0,60,2025-12-14 10h51.31.552039 +0100,
67,0,67,None,,,,,,,67,0,67,0,951.8954439000227,,,,,,,,,,168.42572804151774,228.0,C,color,2,8,,,,,952.3820259000058,952.3961475999968,952.9957539000025,952.9802183000138,952.9803008000017,953.4962765999953,953.4995863999939,953.9961095000035,956.4890117000032,956.9793041000084,954.4962116999959,954.4962509000034,954.910603700002,954.9106458000024,954.9106752999942,NA,nan,954.9106988999993,955.1158091000107,956.4889254000154,238.13847246401946,956.980999499996,957.4122079999943,4.0,0.4160979999869596,nan,nan,,,,,,,,951.8829521000152,951.8954439000227,952.3961475999968,952.3796132999996,957.4158241999976,957.415840200003,None,,,,,KL,001,f,24,2025-12-14_10h51.30.885,RSD11,,2025.2.0,60,2025-12-14 10h51.31.552039 +0100,
68,0,68,None,,,,,,,68,0,68,0,957.428674099996,,,,,,,,,,36.42791809238423,146.0,A,orientation,2,9,,,,,957.9145988000091,957.9287787000067,958.5287576999981,958.5291016999981,958.5291994000145,959.0284216,959.0303210999991,959.5290076000092,963.5207639000146,964.011716500012,960.0289552000177,960.0289989000012,960.4473120000039,963.5205404000008,963.5206375000125,orientation,50.931526924919766,963.5206660999975,963.5207103000139,963.5207338000182,nan,964.0131682000065,964.6442117000115,4.0,0.6155227999843191,nan,nan,,,,,,,,957.4159348999965,957.428674099996,957.9287787000067,957.9125504000112,964.6479732000153,964.6479897999961,None,,,,,KL,001,f,24,2025-12-14_10h51.30.885,RSD11,,2025.2.0,60,2025-12-14 10h51.31.552039 +0100,
69,0,69,None,,,,,,,69,0,69,0,964.6605536999996,,,,,,,,,,134.540153639823,210.0,O,orientation,2,10,,,,,965.1476989000221,965.1611373000196,965.7609582000005,965.7451931000105,965.7452780000167,966.2616276000044,966.265232900012,966.7614412000112,970.0620247000188,970.5609811000177,967.2613832000061,967.2614267000172,967.6718486000027,967.6718889000185,967.6720623000001,orientation,4.32506043473846,970.0618361000088,970.0619187999982,970.0619609999994,nan,970.5627993000089,971.1269204000128,4.0,0.5489905999857001,nan,,,,,,,,,964.6480817999982,964.6605536999996,965.1611373000196,965.1451153999951,971.1322860000073,971.132302300015,None,,,,,KL,001,f,24,2025-12-14_10h51.30.885,RSD11,,2025.2.0,60,2025-12-14 10h51.31.552039 +0100,
70,0,70,None,,,,,,,70,0,70,0,971.1430690000125,,,,,,,,,,114.29599714071699,266.0,A,orientation,2,11,,,,,971.6304822000093,971.6437648000137,972.243701600004,972.2440742000181,972.2441822999972,972.7440189000044,972.7472558000009,973.2438343999966,977.1198579000193,977.6101156000223,973.7435503000161,973.7435853000206,974.1546593999956,977.1195740000112,977.1196754999983,color,nan,977.1197050000192,977.1197516999964,977.1197733000154,271.3875157474432,977.6122187000001,978.2760484000028,4.0,0.6481772999977693,5.387515747443217,1.750465000019176,,,,,,,,971.1324103000225,971.1430690000125,971.6437648000137,971.6277052000223,978.2798905000091,978.2799074000213,None,,,,,KL,001,f,24,2025-12-14_10h51.30.885,RSD11,,2025.2.0,60,2025-12-14 10h51.31.552039 +0100,
71,0,71,None,,,,,,,71,0,71,0,978.2920180000074,,,,,,,,,,8.031849817524705,282.0,A,color,2,12,,,,,978.7773758000112,978.792395299999,979.3928354000091,979.3931683000119,979.3932602000132,979.8930441999983,979.893172000011,980.3931262000115,983.5190502000041,984.0091974000097,980.8926096000068,980.8926425999962,981.3046441000188,983.5187641000084,983.5188669000054,color,nan,983.5188945000118,983.5189418999944,983.5189627000073,286.88033016552384,984.0115551000054,984.64210680002,4.0,0.6146956000011414,4.880330165523844,1.3504188999941107,,,,,,,,978.2800030000217,978.2920180000074,978.792395299999,978.7759548000176,984.6460105000006,984.6460267000075,None,,,,,KL,001,f,24,2025-12-14_10h51.30.885,RSD11,,2025.2.0,60,2025-12-14 10h51.31.552039 +0100,
72,0,72,None,,,,,,,72,0,72,0,984.6580044000002,,,,,,,,,,127.98930004851059,120.0,A,color,2,13,,,,,985.1452950999956,985.1587560000189,985.758401900006,985.7425130000047,985.7425979000109,986.2590064000105,986.2591425999999,986.7588245000225,990.0347674000077,990.5247030000028,987.2589419000142,987.2589849000215,987.8919246000005,990.0344826000219,990.0345860999951,color,nan,990.0346141000045,990.0346604000079,990.0346812000207,94.15605660127643,990.5256478000083,991.0744619000179,4.0,0.5329285000043456,-25.84394339872358,0.8667313999903854,,,,,,,,984.6461229000124,984.6580044000002,985.1587560000189,985.1426471000013,991.0798789999972,991.079897699994,None,,,,,KL,001,f,24,2025-12-14_10h51.30.885,RSD11,,2025.2.0,60,2025-12-14 10h51.31.552039 +0100,
73,0,73,None,,,,,,,73,0,73,0,991.0909823999973,,,,,,,,,,55.772005686355094,354.0,O,orientation,2,14,,,,,991.5768118000124,991.5911300000153,992.1913089000154,992.1917261000199,992.1918151999998,992.6911379999947,992.6933321999968,993.1912746000162,997.0095124000218,997.5072876000195,993.6908971999947,993.6909303000139,994.1003766000213,994.1004186000209,994.1005938000162,orientation,40.015885017421304,997.0092896000133,997.0093869999982,997.0094371000014,nan,997.5087576000078,998.2574011000106,4.0,0.7323235000076238,nan,,,,,,,,,991.0800034000131,991.0909823999973,991.5911300000153,991.5749591000204,998.2610018000123,998.26101810002,None,,,,,KL,001,f,24,2025-12-14_10h51.30.885,RSD11,,2025.2.0,60,2025-12-14 10h51.31.552039 +0100,
74,0,74,None,,,,,,,74,0,74,0,998.2731200999988,,,,,,,,,,1.1543422482178323,264.0,A,orientation,2,15,,,,,998.7593190000043,998.7736570000125,999.3735457000148,999.3739193000074,999.3740299000056,999.87342790002,999.8753795000084,1000.3738525999943,1003.5162980000023,1004.0064830000047,1000.8737403000123,1000.8737846000004,1001.2825487999944,1003.5160058000183,1003.5161110000045,color,nan,1003.5161410000001,1003.5161894000194,1003.5162106000062,269.041965891324,1004.0088925000164,1004.5893421000219,4.0,0.5649744000111241,5.0419658913240255,0.8002798999950755,,,,,,,,998.2611127000127,998.2731200999988,998.7736570000125,998.7572841000219,1004.5932704000152,1004.5932870999968,None,,,,,KL,001,f,24,2025-12-14_10h51.30.885,RSD11,,2025.2.0,60,2025-12-14 10h51.31.552039 +0100,
75,0,75,None,,,,,,,75,0,75,0,1004.605404300004,,,,,,,,,,48.232980557154,208.0,A,orientation,2,16,,,,,1005.0915832000028,1005.1056781999941,1005.7062432999955,1005.706605400017,1005.7067270000116,1006.2061064000009,1006.206240200001,1006.7062179000059,1013.0490266999986,1013.5384039000201,1007.2064140000148,1007.2064587000059,1007.6197947000037,1013.0487369000039,1013.0488424000214,color,nan,1013.0488706000033,1013.0489199000003,1013.0489411000162,214.35433665503967,1013.5397397000052,1014.1048890000093,4.0,0.549440600007074,6.354336655039674,3.167212300002575,,,,,,,,1004.5933831000002,1004.605404300004,1005.1056781999941,1005.0898545999953,1014.1089520000096,1014.1089690000226,None,,,,,KL,001,f,24,2025-12-14_10h51.30.885,RSD11,,2025.2.0,60,2025-12-14 10h51.31.552039 +0100,
76,0,76,None,,,,,,,76,0,76,0,1014.1209937999956,,,,,,,,,,168.19619994582865,238.0,A,orientation,2,17,,,,,1014.6078753000183,1014.6217882000201,1015.221555199998,1015.221876399999,1015.2219674000225,1015.7215241999947,1015.7216591000033,1016.2218272000027,1018.9441570000199,1019.4372292000044,1016.7216429999971,1016.7216873000143,1017.131071300013,1018.9436975000135,1018.9438455000054,color,nan,1018.943889200018,1018.9439831000054,1018.9440253000066,230.68089081796595,1019.4383985000022,1020.103869100014,4.0,0.6498827000032179,-7.319109182034055,0.7463750000169966,,,,,,,,1014.1090642000199,1014.1209937999956,1014.6217882000201,1014.6054154000012,1020.107891599997,1020.1079162000096,None,,,,,KL,001,f,24,2025-12-14_10h51.30.885,RSD11,,2025.2.0,60,2025-12-14 10h51.31.552039 +0100,
77,0,77,None,,,,,,,77,0,77,0,1020.12008350002,,,,,,,,,,38.70901832863119,84.0,A,orientation,2,18,,,,,1020.604721700016,1020.6201655000041,1021.220160900004,1021.2202764000103,1021.2203066000075,1021.7201096000208,1021.7201521999959,1022.2200368000194,1025.2881496000045,1025.7862305000017,1022.7199892000062,1022.720003399998,1023.1568995999987,1025.2878084999975,1025.2879483000142,color,nan,1025.2879764999961,1025.2880295000214,1025.2880580000055,83.68156889851024,1025.7872295000125,1026.386787800002,4.0,0.5833215999882668,-0.3184311014897503,0.8503960999951232,,,,,,,,1020.1080568000034,1020.12008350002,1020.6201655000041,1020.6034963999991,1026.39034730001,1026.3903678000206,None,,,,,KL,001,f,24,2025-12-14_10h51.30.885,RSD11,,2025.2.0,60,2025-12-14 10h51.31.552039 +0100,
78,0,78,None,,,,,,,78,0,78,0,1026.4026840000006,,,,,,,,,,127.14686474032719,254.0,O,orientation,2,19,,,,,1026.8874444999965,1026.9025741000078,1027.5024433000071,1027.5025887000083,1027.502629399998,1028.0024684999953,1028.0044136000215,1028.5024763999972,1032.4698208000045,1032.9687961000018,1029.002476099995,1029.0024860000121,1029.4421697000216,1029.4422153000196,1029.4424139000184,orientation,-43.025065989118026,1032.4696631999977,1032.4697352000221,1032.469772500015,nan,1032.9694688000018,1033.5689868000045,4.0,0.5831804000190459,nan,,,,,,,,,1026.3904844000062,1026.4026840000006,1026.9025741000078,1026.8861708000186,1033.5732089999947,1033.5732323999982,None,,,,,KL,001,f,24,2025-12-14_10h51.30.885,RSD11,,2025.2.0,60,2025-12-14 10h51.31.552039 +0100,
79,0,79,None,,,,,,,79,0,79,0,1033.5851423999993,,,,,,,,,,108.92495383835214,210.0,O,orientation,2,20,,,,,1034.0693604999979,1034.0851100000145,1034.6849987000169,1034.6851245000144,1034.6851594000182,1035.1850179000176,1035.1850704000099,1035.684952600015,1040.152019400004,1040.6509772000136,1036.184937700018,1036.1849511000037,1036.6193517000065,1036.6193976000068,1036.6195729000028,orientation,-40.71084667118098,1040.1519097000128,1040.1519604000205,1040.1519839999964,nan,1040.6520024000201,1041.3681432000012,4.0,0.7001846999919508,nan,,,,,,,,,1033.573356900015,1033.5851423999993,1034.0851100000145,1034.0684953000164,1041.37184170002,1041.3718612999946,None,,,,,KL,001,f,24,2025-12-14_10h51.30.885,RSD11,,2025.2.0,60,2025-12-14 10h51.31.552039 +0100,
80,0,80,None,,,,,,,80,0,80,0,1041.3843081000086,,,,,,,,,,57.468136531468794,80.0,C,color,2,21,,,,,1041.8683770000061,1041.8842366000172,1042.4839714000118,1042.4841062000196,1042.4841496000008,1042.9841222999967,1042.985329600022,1043.4840391000034,1047.1452951999963,1047.633530399995,1043.9841577000043,1043.9841708000167,1044.4183016000025,1044.4183435000014,1044.4183653000218,NA,nan,1044.4183884999948,1044.6340845999948,1047.1451437000069,81.3843518158359,1047.634241599997,1048.4005206000002,4.0,0.7500677999923937,nan,nan,,,,,,,,1041.371973500005,1041.3843081000086,1041.8842366000172,1041.86751120002,1048.4045076000039,1048.4045313000097,None,,,,,KL,001,f,24,2025-12-14_10h51.30.885,RSD11,,2025.2.0,60,2025-12-14 10h51.31.552039 +0100,
81,0,81,None,,,,,,,81,0,81,0,1048.4165284000046,,,,,,,,,,9.348099797959225,320.0,A,orientation,2,22,,,,,1048.9009079000098,1048.9164397999994,1049.5163074000156,1049.5164476000064,1049.516483400017,1050.016352000006,1050.017893900018,1050.5164397000044,1055.2598640000215,1055.7491897,1051.0164090000035,1051.016424500005,1051.7995249000087,1055.2596045999962,1055.259739400004,orientation,62.13299615034313,1055.2597727999964,1055.2598187999974,1055.2598386000027,nan,1055.7503443000023,1056.3162210000155,4.0,0.5496162000054028,nan,nan,,,,,,,,1048.4046636999992,1048.4165284000046,1048.9164397999994,1048.8999872000131,1056.320029399998,1056.3200536000077,None,,,,,KL,001,f,24,2025-12-14_10h51.30.885,RSD11,,2025.2.0,60,2025-12-14 10h51.31.552039 +0100,
82,0,82,None,,,,,,,82,0,82,0,1056.3323591000226,,,,,,,,,,161.402742898215,198.0,A,color,2,23,,,,,1056.8166777000006,1056.8322473000153,1057.4320002000022,1057.4321519000223,1057.4321949000005,1057.9322074000083,1057.9322626000212,1058.4320929000096,1061.1269673000206,1061.615309900022,1058.9320269000018,1058.9320390000066,1059.3669474000053,1061.1266236999945,1061.126769800001,color,nan,1061.1267994000227,1061.1268488000205,1061.1268737000064,194.51105950016907,1061.6163583000016,1062.1820905000204,4.0,0.5493739999947138,-3.4889404998309317,0.800181699974928,,,,,,,,1056.3201819999958,1056.3323591000226,1056.8322473000153,1056.815741600003,1062.1860381000151,1062.186063400004,None,,,,,KL,001,f,24,2025-12-14_10h51.30.885,RSD11,,2025.2.0,60,2025-12-14 10h51.31.552039 +0100,
83,0,83,None,,,,,,,83,0,83,0,1062.1981143000012,,,,,,,,,,38.01675444926127,80.0,A,color,2,24,,,,,1062.6825248000096,1062.698018199997,1063.2980064000003,1063.2982571000175,1063.2983043999993,1063.7981594000012,1063.798226200015,1064.2980587000202,1068.13401530002,1068.630897199997,1064.7980959000124,1064.7981053999974,1065.2356642000086,1068.1336334000225,1068.1338008000166,orientation,65.82089285331082,1068.1338453000062,1068.1339243999973,1068.1339650000155,nan,1068.6319246000203,1069.2645379000169,4.0,0.6161475999979302,nan,nan,,,,,,,,1062.1861938000075,1062.1981143000012,1062.698018199997,1062.681611100008,1069.268609699997,1069.2686324999959,None,,,,,KL,001,f,24,2025-12-14_10h51.30.885,RSD11,,2025.2.0,60,2025-12-14 10h51.31.552039 +0100,
84,0,84,None,,,,,,,84,0,84,0,1069.2806685999967,,,,,,,,,,107.67369974311305,272.0,A,color,2,25,,,,,1069.7650996000157,1069.780690100015,1070.3804785000102,1070.3806277000112,1070.380670100014,1070.8805123000056,1070.8805606999958,1071.3805798999965,1074.5350947999978,1075.0301936000178,1071.8806134000188,1071.880627000006,1072.3395146999974,1074.5347658999963,1074.534898300015,color,nan,1074.534934700001,1074.534985300008,1074.5350080000062,273.66039854787545,1075.0314553000208,1075.680395000003,4.0,0.6330100999912247,1.6603985478754453,1.2112842999922577,,,,,,,,1069.2687638000061,1069.2806685999967,1069.780690100015,1069.7642173000204,1075.6841714000038,1075.6841920000152,None,,,,,KL,001,f,24,2025-12-14_10h51.30.885,RSD11,,2025.2.0,60,2025-12-14 10h51.31.552039 +0100,
85,0,85,None,,,,,,,85,0,85,0,1075.6963279000192,,,,,,,,,,9.040914275449898,252.0,A,orientation,2,26,,,,,1076.180806999997,1076.1963734000165,1076.7963512999995,1076.7964914000186,1076.7965354000044,1077.2964636000106,1077.2965170000098,1077.7964087,1082.5241689000104,1083.0123023000197,1078.2963619999937,1078.2963735999947,1078.7301848000207,1082.523861099995,1082.5239937000151,color,nan,1082.524028200016,1082.5240776000137,1082.5240963000106,262.0522846862687,1083.012998100021,1083.8627749000152,4.0,0.833563000021968,10.052284686268706,2.4518681000045035,,,,,,,,1075.6843108000176,1075.6963279000192,1076.1963734000165,1076.1799384000187,1083.8667185000086,1083.8667434999952,None,,,,,KL,001,f,24,2025-12-14_10h51.30.885,RSD11,,2025.2.0,60,2025-12-14 10h51.31.552039 +0100,
86,0,86,None,,,,,,,86,0,86,0,1083.8787478000158,,,,,,,,,,107.25747618076012,194.0,A,color,2,27,,,,,1084.3635862999945,1084.3788859000197,1084.9786434000125,1084.9787594999943,1084.978793700022,1085.4786778000125,1085.4787233000097,1085.9787368999969,1089.7356930999958,1090.2280335999967,1086.4787903999968,1086.4788033000077,1086.9160626000084,1089.7353510000103,1089.7354939000215,color,nan,1089.7355239000171,1089.735576200008,1089.7356007000199,208.5005774838058,1090.2286903000204,1090.8619276999962,4.0,0.6170165999792516,14.500577483805813,1.5415909999865107,,,,,,,,1083.8668802000175,1083.8787478000158,1084.3788859000197,1084.3622952000005,1090.8674062000064,1090.8674414000125,None,,,,,KL,001,f,24,2025-12-14_10h51.30.885,RSD11,,2025.2.0,60,2025-12-14 10h51.31.552039 +0100,
87,0,87,None,,,,,,,87,0,87,0,1090.877770000021,,,,,,,,,,37.80452869811838,186.0,C,color,2,28,,,,,1091.362605900009,1091.3778870000097,1091.9777137000056,1091.9779563000193,1091.9779932000092,1092.4778886999993,1092.4799002000073,1092.9776238000195,1095.0638485999953,1095.5606955999974,1093.4776889000204,1093.4776984000055,1093.9011617000215,1093.9012070000172,1093.9012401000073,NA,nan,1093.9012633000093,1094.1146545000083,1095.063718599995,206.9192709578924,1095.5614706000197,1096.544456500007,4.0,0.9668381999945268,nan,nan,,,,,,,,1090.8676381999976,1090.877770000021,1091.3778870000097,1091.3613511000003,1096.5480984000023,1096.548119300016,None,,,,,KL,001,f,24,2025-12-14_10h51.30.885,RSD11,,2025.2.0,60,2025-12-14 10h51.31.552039 +0100,
88,0,88,None,,,,,,,88,0,88,0,1096.5604973000009,,,,,,,,,,108.02301821907918,132.0,O,orientation,2,29,,,,,1097.0455882000097,1097.0605155999947,1097.660271700006,1097.6604228000215,1097.660459900013,1098.1602685000107,1098.1619928000146,1098.6603062000067,1101.8778670000029,1102.3766531000147,1099.1601910000027,1099.1602034000098,1099.5925593000138,1099.5926039000042,1099.5927866999991,orientation,-34.35433665503968,1101.8777053999947,1101.8777824999997,1101.8778202999965,nan,1102.3776304000057,1102.9770453000092,4.0,0.5829582000151277,nan,,,,,,,,,1096.5482382000191,1096.5604973000009,1097.0605155999947,1097.0441600000195,1102.9806854000199,1102.9807066000067,None,,,,,KL,001,f,24,2025-12-14_10h51.30.885,RSD11,,2025.2.0,60,2025-12-14 10h51.31.552039 +0100,
89,0,89,None,,,,,,,89,0,89,0,1102.993004500022,,,,,,,,,,164.3054320241815,66.0,O,orientation,2,30,,,,,1103.4779298000212,1103.4930918000173,1104.0928689000139,1104.0930014000041,1104.093035900005,1104.5930071000184,1104.5930486000143,1105.0930088000023,1108.0939586000168,1108.592397600005,1105.5928556,1105.5928716000053,1106.0209052000137,1106.0209418000013,1106.0210852000164,orientation,-16.29879638153732,1108.0937841999985,1108.0938584000105,1108.0938953000004,nan,1108.5933532000054,1109.4760504000005,4.0,0.8669727999949828,nan,,,,,,,,,1102.9808262000151,1102.993004500022,1103.4930918000173,1103.4767272000026,1109.4798318000103,1109.4798585000099,None,,,,,KL,001,f,24,2025-12-14_10h51.30.885,RSD11,,2025.2.0,60,2025-12-14 10h51.31.552039 +0100,
90,0,90,None,,,,,,,90,0,90,0,1109.4920939000149,,,,,,,,,,113.18236893364896,194.0,O,orientation,2,31,,,,,1109.9770386000164,1109.992066900013,1110.592063899996,1110.5921971000207,1110.5922328000015,1111.0920467000105,1111.0920936000184,1111.5919618000044,1116.042883999995,1116.5415804000222,1112.0919236000045,1112.0919377999962,1112.8898174000205,1112.8898663000145,1112.8900412000075,orientation,139.11222884471846,1116.042738899996,1116.0428072000213,1116.0428415000206,nan,1116.5422225999937,1117.3918157000153,4.0,0.8341156999813393,nan,,,,,,,,,1109.4800148000068,1109.4920939000149,1109.992066900013,1109.9757834000047,1117.3958563000197,1117.3958795000217,None,,,,,KL,001,f,24,2025-12-14_10h51.30.885,RSD11,,2025.2.0,60,2025-12-14 10h51.31.552039 +0100,
91,0,91,None,,,,,,,91,0,91,0,1117.4078638000065,,,,,,,,,,159.4405047026215,256.0,C,color,2,32,,,,,1117.8923456000048,1117.9077473000216,1118.5076417000091,1118.5077891999972,1118.507825800014,1119.007662899996,1119.0088780000224,1119.5077334000089,1122.1558689000085,1122.6409314000048,1120.0077253000054,1120.0077409000078,1120.4472405000124,1120.447281700006,1120.4473105000216,NA,nan,1120.447337300022,1120.6712817000225,1122.1557546000113,272.24175066319737,1122.6420285000058,1123.27447210002,4.0,0.6163644999905955,nan,nan,,,,,,,,1117.3960172000225,1117.4078638000065,1117.9077473000216,1117.8914928000013,1123.2782679999946,1123.2782896000135,None,,,,,KL,001,f,24,2025-12-14_10h51.30.885,RSD11,,2025.2.0,60,2025-12-14 10h51.31.552039 +0100,
92,0,92,None,,,,,,,92,0,92,0,1123.2906268000079,,,,,,,,,,136.63233266792247,120.0,C,color,2,33,,,,,1123.7751910000225,1123.790539300011,1124.3903152999992,1124.390427700011,1124.3904560999945,1124.890459200018,1124.8904960000073,1125.390612999996,1132.05613490002,1132.5561942000058,1125.8904469000117,1125.8904591000173,1126.3287891000218,1126.32883090002,1126.3288556000043,NA,nan,1126.3288755000103,1126.5448252000206,1132.0560233000142,108.24375115828724,1132.5572731000138,1133.2399644000106,4.0,0.6663819999957923,nan,nan,,,,,,,,1123.278416700021,1123.2906268000079,1123.790539300011,1123.7738874000206,1133.244574100012,1133.2445976000163,None,,,,,KL,001,f,24,2025-12-14_10h51.30.885,RSD11,,2025.2.0,60,2025-12-14 10h51.31.552039 +0100,
93,0,93,None,,,,,,,93,0,93,0,1133.255896799994,,,,,,,,,,93.40859260717983,260.0,O,orientation,2,34,,,,,1133.7405743999989,1133.7558938000002,1134.355761600018,1134.3559000999958,1134.3559379000217,1134.8557885000191,1134.8575719000073,1135.3556767000118,1137.6397862000158,1138.1388622999948,1135.8558240999992,1135.8558336000133,1136.305772199994,1136.3058139000204,1136.305977800017,orientation,120.19497751478943,1137.6396639000159,1137.6397196000034,1137.6397472000099,nan,1138.1399362999946,1138.8891092000122,4.0,0.7329918000032194,nan,,,,,,,,,1133.2447280000197,1133.255896799994,1133.7558938000002,1133.7394160999975,1138.8928257000225,1138.892846600007,None,,,,,KL,001,f,24,2025-12-14_10h51.30.885,RSD11,,2025.2.0,60,2025-12-14 10h51.31.552039 +0100,
94,0,94,None,,,,,,,94,0,94,0,1138.9052469000162,,,,,,,,,,105.7591217186769,60.0,A,color,2,35,,,,,1139.3902455000207,1139.4051212000195,1140.0050161000108,1140.0051636999997,1140.0052061000024,1140.505147400021,1140.5061419999984,1141.0050904999953,1144.4008689000038,1144.8878550000081,1141.5049782000133,1141.5049878999998,1141.9378620000207,1144.4005399000016,1144.400673199998,color,nan,1144.4007129000092,1144.4007667000114,1144.4007877999975,60.73007283718636,1144.8885391000076,1145.5049368000182,4.0,0.5999967000097968,0.7300728371863556,0.9678074999828823,,,,,,,,1138.8929869999993,1138.9052469000162,1139.4051212000195,1139.3887761000078,1145.509099100018,1145.5091233999992,None,,,,,KL,001,f,24,2025-12-14_10h51.30.885,RSD11,,2025.2.0,60,2025-12-14 10h51.31.552039 +0100,
95,0,95,None,,,,,,,95,0,95,0,1145.5210652000096,,,,,,,,,,51.44237448232031,34.0,A,color,2,36,,,,,1146.0058254000032,1146.021019000007,1146.6209042000119,1146.6210271000164,1146.6210615000164,1147.1209351000143,1147.1209722000058,1147.62084410002,1150.5823593999958,1151.0715911000152,1148.1208677999966,1148.1208762000024,1148.5442699000123,1150.5820598000137,1150.5821671000158,color,nan,1150.5821972000122,1150.5822442000208,1150.5822662000137,33.908961511680275,1151.073671799997,1151.804040899995,4.0,0.7148451000102796,-0.09103848831972527,1.084732699993765,,,,,,,,1145.509260699997,1145.5210652000096,1146.021019000007,1146.0045172999962,1151.8079638000054,1151.8079809000192,None,,,,,KL,001,f,24,2025-12-14_10h51.30.885,RSD11,,2025.2.0,60,2025-12-14 10h51.31.552039 +0100,
96,0,96,None,,,,,,,96,0,96,0,1151.8200918000075,,,,,,,,,,104.53315514901328,124.0,A,orientation,2,37,,,,,1152.308055100002,1152.320420300006,1152.9204573000025,1152.9049836000195,1152.9050697000057,1153.4211515000206,1153.4212907000037,1153.921271500003,1158.330387599999,1158.8205642999965,1154.4211136999947,1154.4211583000142,1154.8334255999944,1158.3300965999952,1158.3302000999975,color,nan,1158.330227700004,1158.3302734000026,1158.3302972000092,102.95086843224863,1158.8220984000072,1159.469806900015,4.0,0.6320738999929745,-21.049131567751374,2.400211300002411,,,,,,,,1151.8080761000165,1151.8200918000075,1152.320420300006,1152.304954399995,1159.473730800004,1159.4737473000132,None,,,,,KL,001,f,24,2025-12-14_10h51.30.885,RSD11,,2025.2.0,60,2025-12-14 10h51.31.552039 +0100,
97,0,97,None,,,,,,,97,0,97,0,1159.4858160000003,,,,,,,,,,146.80670265091138,202.0,O,orientation,2,38,,,,,1159.973212700017,1159.9863973000029,1160.586188300018,1160.5700838000048,1160.5701487000042,1161.0868592000043,1161.0902570000035,1161.586080900015,1164.8540758000163,1165.3530274000077,1162.086342900002,1162.0863710000122,1162.4961957000196,1162.4962373000162,1162.4964409999957,orientation,-16.141065296912018,1164.8538731000153,1164.85396030001,1164.854007100017,nan,1165.3554519000172,1166.2355814000184,4.0,0.8641154000069946,nan,,,,,,,,,1159.4738428000128,1159.4858160000003,1159.9863973000029,1159.9705396000063,1166.2409109,1166.24092750001,None,,,,,KL,001,f,24,2025-12-14_10h51.30.885,RSD11,,2025.2.0,60,2025-12-14 10h51.31.552039 +0100,
98,0,98,None,,,,,,,98,0,98,0,1166.2516741,,,,,,,,,,56.860820573452266,0.0,O,orientation,2,39,,,,,1166.7390685999999,1166.7521312000172,1167.3524477000174,1167.3528155999957,1167.3529230999993,1167.852364100021,1167.8524978000205,1168.3526387000165,1170.9366423000174,1171.4350661000062,1168.8524905999948,1168.8525268000085,1169.2549956000003,1169.2550291000225,1169.2551687000087,orientation,71.27905132528292,1170.93643110001,1170.936523100012,1170.9365701000206,nan,1171.4363879000011,1172.4020987999975,4.0,0.9493618999840692,nan,,,,,,,,,1166.2410226000065,1166.2516741,1166.7521312000172,1166.7363553000032,1172.4057983999955,1172.40581560001,None,,,,,KL,001,f,24,2025-12-14_10h51.30.885,RSD11,,2025.2.0,60,2025-12-14 10h51.31.552039 +0100,
99,0,99,None,,,,,,,99,0,99,0,1172.4175996000122,,,,,,,,,,147.32574266884745,204.0,A,color,2,40,,,,,1172.904638500011,1172.9180530000012,1173.5180827000004,1173.5184483000194,1173.5185578000091,1174.018762599997,1174.022453600017,1174.5186052000208,1178.3601307000208,1178.8507620000164,1175.0182161999983,1175.0182575000217,1175.7057606000162,1178.3599094999954,1178.3600062000041,orientation,-12.85809017299818,1178.3600351000205,1178.36007960001,1178.3601001000206,nan,1178.8523958000005,1179.3514312000189,4.0,0.4827056000067387,nan,nan,,,,,,,,1172.4059166999941,1172.4175996000122,1172.9180530000012,1172.9022327999992,1179.3577239000006,1179.3577397000045,None,,,,,KL,001,f,24,2025-12-14_10h51.30.885,RSD11,,2025.2.0,60,2025-12-14 10h51.31.552039 +0100,
100,0,100,None,,,,,,,100,0,100,0,1179.3672611000075,,,,,,,,,,148.62870872922934,218.0,O,orientation,2,41,,,,,1179.8543224000023,1179.8670525000198,1180.467470500007,1180.4678365,1180.4679378000146,1180.9675108999945,1180.970593200007,1181.4673473000003,1183.7860152000212,1184.283938700013,1181.9679387000215,1181.967974500003,1182.3796569000115,1182.3796965999936,1182.379857699998,orientation,-18.85315876441911,1183.7857633999956,1183.7858757000067,1183.785931899998,nan,1184.2853990000149,1184.8334738000121,4.0,0.5319855000125244,nan,,,,,,,,,1179.3578344999987,1179.3672611000075,1179.8670525000198,1179.851487100008,1184.836865499994,1184.8368814999994,None,,,,,KL,001,f,24,2025-12-14_10h51.30.885,RSD11,,2025.2.0,60,2025-12-14 10h51.31.552039 +0100,
101,0,101,None,,,,,,,101,0,101,0,1184.8493039000023,,,,,,,,,,169.50798366621268,356.0,A,orientation,2,42,,,,,1185.3369610999944,1185.3501439999964,1185.950099300011,1185.9341322999971,1185.9342179000087,1186.4503630000108,1186.4537381000118,1186.9502876000188,1189.9920346,1190.483485500008,1187.449886300019,1187.449923600012,1187.8565936000086,1189.9918159000226,1189.99191110002,orientation,0.0,1189.9919406000117,1189.9919853000029,1189.992006400018,nan,1190.4858725999948,1190.915831899998,4.0,0.41423999998369254,nan,nan,,,,,,,,1184.8369779000059,1184.8493039000023,1185.3501439999964,1185.334101400018,1190.919575900014,1190.9195923999941,None,,,,,KL,001,f,24,2025-12-14_10h51.30.885,RSD11,,2025.2.0,60,2025-12-14 10h51.31.552039 +0100,
